aX,aY,aZ,gX,gY,gZ
0.509,0.238,0.091,89.233,22.461,179.199
0.381,0.421,-0.016,35.889,34.241,192.200
0.357,0.562,-0.139,-5.554,34.180,201.355
0.226,0.658,-0.187,-31.067,19.470,199.646
0.097,0.750,-0.191,-44.434,1.831,191.406
-0.023,0.835,-0.173,-51.086,-8.972,183.716
0.038,0.849,-0.195,-61.035,-10.254,177.002
0.021,0.787,-0.240,-86.792,-9.888,163.818
-0.038,0.654,-0.366,-124.390,-12.085,139.893
-0.144,0.532,-0.488,-156.860,-17.273,121.582
-0.248,0.399,-0.551,-167.786,-29.053,117.065
-0.309,0.243,-0.602,-163.574,-42.542,120.667
-0.398,0.125,-0.656,-159.119,-54.016,129.395
-0.408,0.025,-0.792,-158.997,-64.392,143.616
-0.475,-0.032,-0.805,-169.128,-73.059,162.231
-0.515,-0.078,-0.804,-197.632,-77.209,182.556
-0.519,-0.126,-0.778,-237.976,-84.961,200.195
-0.502,-0.160,-0.739,-277.466,-94.360,215.820
-0.511,-0.152,-0.713,-299.988,-95.154,227.844
-0.500,-0.150,-0.635,-284.363,-87.219,232.056
-0.519,-0.219,-0.487,-220.642,-77.576,229.187
-0.499,-0.332,-0.361,-122.192,-66.772,229.187
-0.512,-0.411,-0.239,-19.165,-52.917,241.089
-0.559,-0.340,-0.180,63.721,-36.987,263.855
-0.566,-0.091,-0.198,117.371,-25.208,286.560
-0.597,0.196,-0.142,152.893,-21.179,301.025
-0.608,0.484,-0.060,178.223,-22.217,301.331
-0.568,0.735,-0.003,197.205,-23.132,290.222
-0.504,0.903,0.050,211.914,-21.301,274.353
-0.533,1.017,0.075,215.759,-15.930,256.897
-0.519,1.132,0.008,204.773,-8.606,240.112
-0.543,1.220,-0.017,184.021,-9.216,226.807
-0.587,1.286,0.033,158.020,-17.151,215.759
-0.691,1.322,0.117,132.629,-28.015,202.637
-0.686,1.367,0.224,113.586,-39.124,188.843
-0.801,1.470,0.363,104.248,-44.373,185.486
-0.929,1.648,0.440,102.905,-38.269,189.026
-1.073,1.903,0.469,108.582,-29.175,195.251
-1.250,2.243,0.473,115.356,-22.583,202.759
-1.433,2.636,0.456,119.385,-17.883,208.191
-1.593,3.034,0.437,121.155,-17.578,204.407
-1.673,3.380,0.393,124.451,-17.639,184.387
-1.723,3.600,0.357,132.751,-15.991,142.578
-1.759,3.679,0.333,140.198,-12.512,84.473
-1.821,3.688,0.291,128.723,-5.615,17.822
-1.889,3.650,0.206,105.957,6.287,-51.819
-1.914,3.492,0.096,82.581,13.428,-119.019
-1.894,3.231,0.042,59.021,8.667,-178.467
-1.828,2.935,0.049,32.837,-4.822,-229.492
-1.746,2.676,0.079,8.789,-18.188,-268.555
-1.584,2.457,0.129,-6.287,-29.358,-299.683
-1.528,2.305,0.231,-13.245,-39.978,-326.172
-1.416,2.210,0.355,-19.104,-45.288,-346.375
-1.271,2.071,0.422,-24.963,-37.659,-369.080
-1.237,1.923,0.505,-31.799,-26.733,-403.259
-1.251,1.772,0.576,-42.725,-14.221,-440.552
-1.194,1.553,0.600,-54.871,-0.061,-475.952
-1.156,1.326,0.625,-60.974,17.090,-508.911
-1.112,1.110,0.619,-63.904,35.156,-539.001
-1.103,0.873,0.607,-66.650,52.551,-566.956
-1.080,0.611,0.556,-69.580,69.580,-591.919
-1.000,0.354,0.443,-69.153,88.623,-610.962
-0.932,0.092,0.291,-64.331,104.492,-622.559
-0.832,-0.188,0.138,-59.509,114.136,-626.404
-0.707,-0.427,-0.003,-66.162,115.356,-621.460
-0.590,-0.616,-0.111,-86.365,105.225,-603.516
-0.466,-0.781,-0.193,-112.976,83.801,-571.716
-0.309,-0.926,-0.229,-139.954,58.105,-524.048
-0.105,-1.027,-0.215,-165.527,31.555,-467.529
0.048,-1.034,-0.161,-188.110,4.700,-406.189
0.134,-1.012,-0.071,-198.853,-16.907,-346.558
0.268,-1.011,0.013,-192.505,-29.968,-300.476
0.414,-0.998,0.095,-173.645,-34.241,-265.320
0.485,-0.949,0.156,-140.686,-32.959,-232.605
0.513,-0.855,0.191,-90.088,-23.560,-201.416
0.537,-0.746,0.183,-24.353,-8.240,-170.105
0.563,-0.618,0.154,42.358,10.437,-141.907
0.623,-0.492,0.068,94.116,28.748,-119.812
0.609,-0.419,-0.026,125.854,44.617,-106.445
0.647,-0.448,-0.136,137.695,59.509,-104.065
0.666,-0.484,-0.217,128.784,67.322,-101.624
0.649,-0.491,-0.270,104.553,66.223,-94.421
0.641,-0.503,-0.276,75.684,58.899,-84.473
0.666,-0.540,-0.272,45.776,48.584,-75.745
0.710,-0.572,-0.274,11.536,38.940,-67.261
0.745,-0.577,-0.270,-23.437,32.715,-53.833
0.748,-0.552,-0.251,-51.575,28.076,-39.246
0.752,-0.519,-0.242,-67.078,23.804,-27.100
0.781,-0.496,-0.232,-66.895,22.095,-16.357
0.785,-0.473,-0.226,-52.979,21.301,-6.470
0.787,-0.439,-0.216,-31.311,20.081,2.319
0.813,-0.387,-0.211,-7.263,21.118,11.475
0.812,-0.329,-0.201,16.113,22.583,20.386
0.814,-0.277,-0.213,34.363,27.039,28.015
0.816,-0.242,-0.241,46.021,30.640,32.227
0.839,-0.224,-0.274,51.147,31.738,33.081
0.841,-0.210,-0.281,52.063,28.687,32.837
0.848,-0.199,-0.276,51.086,24.292,33.569
0.834,-0.188,-0.255,50.781,21.240,35.645
0.836,-0.179,-0.237,50.781,19.409,37.476
0.849,-0.182,-0.216,51.392,17.761,38.086
0.850,-0.174,-0.200,52.490,16.602,38.147
0.855,-0.199,-0.182,54.016,16.052,37.048
0.841,-0.234,-0.171,55.420,16.479,34.851
0.836,-0.262,-0.175,56.335,19.897,35.889
0.827,-0.290,-0.163,57.129,22.705,40.955
0.805,-0.292,-0.161,58.594,25.391,48.950
0.791,-0.280,-0.161,62.012,27.710,58.350
0.799,-0.272,-0.165,68.848,30.334,68.726
0.789,-0.255,-0.169,77.087,32.471,78.369
0.773,-0.230,-0.170,86.548,34.973,88.074
0.777,-0.189,-0.174,94.971,37.720,96.802
0.767,-0.138,-0.174,103.333,40.161,105.652
0.744,-0.087,-0.170,112.183,42.236,113.159
0.720,-0.042,-0.173,120.911,45.288,118.774
0.702,-0.001,-0.191,129.639,49.683,122.742
0.654,0.025,-0.204,140.320,54.626,125.244
0.620,0.031,-0.253,149.658,62.195,127.014
0.616,0.026,-0.325,157.349,70.251,130.798
0.226,0.658,-0.187,-31.067,19.470,199.646
0.097,0.750,-0.191,-44.434,1.831,191.406
-0.023,0.835,-0.173,-51.086,-8.972,183.716
0.038,0.849,-0.195,-61.035,-10.254,177.002
0.021,0.787,-0.240,-86.792,-9.888,163.818
-0.038,0.654,-0.366,-124.390,-12.085,139.893
-0.144,0.532,-0.488,-156.860,-17.273,121.582
-0.248,0.399,-0.551,-167.786,-29.053,117.065
-0.309,0.243,-0.602,-163.574,-42.542,120.667
-0.398,0.125,-0.656,-159.119,-54.016,129.395
-0.408,0.025,-0.792,-158.997,-64.392,143.616
-0.475,-0.032,-0.805,-169.128,-73.059,162.231
-0.515,-0.078,-0.804,-197.632,-77.209,182.556
-0.519,-0.126,-0.778,-237.976,-84.961,200.195
-0.502,-0.160,-0.739,-277.466,-94.360,215.820
-0.511,-0.152,-0.713,-299.988,-95.154,227.844
-0.500,-0.150,-0.635,-284.363,-87.219,232.056
-0.519,-0.219,-0.487,-220.642,-77.576,229.187
-0.499,-0.332,-0.361,-122.192,-66.772,229.187
-0.512,-0.411,-0.239,-19.165,-52.917,241.089
-0.559,-0.340,-0.180,63.721,-36.987,263.855
-0.566,-0.091,-0.198,117.371,-25.208,286.560
-0.597,0.196,-0.142,152.893,-21.179,301.025
-0.608,0.484,-0.060,178.223,-22.217,301.331
-0.568,0.735,-0.003,197.205,-23.132,290.222
-0.504,0.903,0.050,211.914,-21.301,274.353
-0.533,1.017,0.075,215.759,-15.930,256.897
-0.519,1.132,0.008,204.773,-8.606,240.112
-0.543,1.220,-0.017,184.021,-9.216,226.807
-0.587,1.286,0.033,158.020,-17.151,215.759
-0.691,1.322,0.117,132.629,-28.015,202.637
-0.686,1.367,0.224,113.586,-39.124,188.843
-0.801,1.470,0.363,104.248,-44.373,185.486
-0.929,1.648,0.440,102.905,-38.269,189.026
-1.073,1.903,0.469,108.582,-29.175,195.251
-1.250,2.243,0.473,115.356,-22.583,202.759
-1.433,2.636,0.456,119.385,-17.883,208.191
-1.197,1.707,0.955,-0.916,-8.789,-330.750
-1.250,1.718,1.009,3.296,10.498,-354.553
-1.290,1.689,1.081,11.475,28.015,-375.488
-1.302,1.658,1.199,18.738,44.678,-398.499
-1.411,1.582,1.345,18.616,61.523,-422.546
-1.684,1.421,1.394,6.348,92.346,-449.829
-1.510,1.076,1.179,-21.790,142.944,-498.230
-1.380,0.659,0.929,-60.486,182.922,-554.260
-1.348,0.266,0.673,-100.098,205.444,-593.384
-1.232,-0.063,0.425,-130.371,213.196,-613.342
-1.096,-0.329,0.245,-143.494,200.256,-614.258
-0.938,-0.538,0.145,-140.808,171.204,-593.811
-0.731,-0.743,0.106,-130.371,138.123,-559.570
-0.585,-0.911,0.120,-125.366,107.056,-518.188
-0.420,-1.031,0.166,-132.874,82.581,-471.069
-0.214,-1.107,0.221,-152.649,61.096,-422.913
-0.039,-1.120,0.289,-176.819,41.931,-381.470
0.072,-1.088,0.363,-194.824,25.330,-347.046
0.169,-1.099,0.442,-196.777,14.343,-318.115
0.260,-1.152,0.485,-181.458,13.794,-295.532
0.337,-1.204,0.461,-154.175,25.330,-271.973
0.427,-1.258,0.377,-116.638,43.274,-242.798
0.509,-1.284,0.278,-72.754,60.547,-207.642
0.567,-1.222,0.185,-29.724,71.228,-164.795
0.609,-1.073,0.110,7.751,71.777,-116.821
0.662,-0.890,0.067,35.889,63.904,-74.829
0.729,-0.698,0.067,52.002,52.551,-45.715
0.753,-0.527,0.100,54.504,42.114,-27.588
0.754,-0.385,0.134,44.373,36.072,-17.700
0.785,-0.291,0.149,27.588,35.706,-15.686
0.804,-0.228,0.134,10.559,38.208,-18.066
0.813,-0.202,0.109,-2.747,40.161,-23.010
0.818,-0.215,0.088,-8.423,40.344,-28.137
0.822,-0.244,0.061,-7.690,39.734,-31.433
0.824,-0.257,0.033,-2.197,40.222,-28.442
0.820,-0.254,0.008,5.798,41.382,-20.203
0.837,-0.236,-0.013,14.282,40.894,-11.719
0.841,-0.201,-0.017,20.508,36.682,-4.761
0.847,-0.167,-0.022,24.963,33.142,1.465
0.856,-0.149,-0.032,27.405,32.532,5.554
0.856,-0.145,-0.039,27.222,33.081,8.240
0.856,-0.139,-0.055,23.926,33.264,10.681
0.854,-0.111,-0.066,20.325,33.325,15.381
0.860,-0.063,-0.080,17.212,33.447,22.095
0.864,-0.015,-0.089,16.052,32.532,28.625
0.872,0.018,-0.091,16.602,31.555,32.349
0.890,0.040,-0.101,17.700,31.738,32.959
0.900,0.053,-0.117,18.250,32.043,32.104
0.916,0.064,-0.134,19.714,33.020,32.043
0.924,0.078,-0.147,21.484,33.142,32.166
0.927,0.100,-0.157,24.109,33.203,33.508
0.935,0.127,-0.163,28.015,32.410,34.973
0.949,0.152,-0.159,33.936,30.579,35.278
0.952,0.174,-0.146,40.710,27.588,33.447
0.946,0.190,-0.131,48.523,25.818,30.640
0.945,0.187,-0.120,56.091,25.635,26.550
0.937,0.167,-0.098,62.500,25.513,21.667
0.922,0.143,-0.074,66.101,25.391,17.639
0.909,0.126,-0.057,67.688,25.818,14.648
0.902,0.104,-0.044,68.176,26.245,11.963
0.901,0.073,-0.031,69.946,27.405,9.888
0.918,0.038,-0.028,72.021,30.212,8.301
0.928,-0.002,-0.035,74.524,34.424,8.057
0.936,-0.044,-0.050,78.308,39.185,8.911
0.948,-0.086,-0.067,83.496,43.945,11.292
0.978,-0.125,-0.092,88.684,47.058,16.113
0.964,-0.152,-0.102,93.079,48.767,23.682
0.936,-0.173,-0.111,94.910,50.232,30.884
0.898,-0.187,-0.115,93.811,51.575,38.757
0.858,-0.183,-0.124,89.966,52.917,48.706
0.825,-0.151,-0.148,85.815,54.138,61.096
0.809,-0.101,-0.174,83.984,53.711,74.463
0.800,-0.046,-0.187,86.914,51.331,87.463
0.798,0.002,-0.179,93.262,46.631,97.961
0.809,0.038,-0.161,100.403,41.992,105.835
0.822,0.071,-0.139,106.018,38.818,111.877
0.838,0.108,-0.125,109.619,38.513,117.065
0.826,0.144,-0.115,111.511,40.344,121.094
0.809,0.186,-0.128,113.586,43.823,124.878
0.777,0.235,-0.152,117.554,47.607,129.028
0.747,0.283,-0.174,124.084,48.523,133.240
0.722,0.333,-0.193,132.812,44.922,139.526
0.363,0.858,-0.143,130.493,21.118,83.374
0.328,0.845,-0.172,135.437,19.958,79.346
0.318,0.823,-0.195,141.907,15.198,75.806
0.307,0.794,-0.203,146.240,8.972,70.984
0.303,0.752,-0.203,146.606,0.061,65.857
0.260,0.692,-0.210,140.869,-8.789,61.157
0.238,0.636,-0.221,126.953,-15.198,56.580
0.201,0.572,-0.254,102.234,-21.118,51.758
0.164,0.497,-0.310,70.496,-27.893,48.035
0.125,0.407,-0.371,33.142,-37.476,44.067
0.073,0.323,-0.440,-9.216,-50.110,41.748
0.057,0.203,-0.505,-58.228,-65.002,43.213
0.043,0.060,-0.545,-117.310,-81.482,48.096
-0.078,-0.080,-0.573,-188.354,-98.267,57.251
-0.113,-0.221,-0.641,-266.968,-114.441,70.435
-0.220,-0.358,-0.665,-341.980,-135.559,91.797
-0.366,-0.486,-0.652,-398.682,-160.278,120.422
-0.400,-0.630,-0.581,-415.283,-186.951,156.982
-0.503,-0.786,-0.310,-359.863,-216.675,199.524
-0.715,-0.849,0.155,-226.929,-237.366,247.498
-0.915,-0.795,0.611,-54.626,-235.718,312.622
-1.027,-0.586,0.937,106.628,-205.322,395.691
-1.063,-0.232,1.082,224.365,-151.062,473.694
-1.115,0.213,1.084,287.659,-94.727,526.062
-1.174,0.635,1.005,306.335,-52.979,553.528
-1.196,0.996,0.860,294.800,-25.452,556.091
-1.182,1.271,0.723,270.569,-10.132,530.151
-1.156,1.436,0.625,245.667,-10.620,476.746
-1.133,1.535,0.571,224.243,-24.109,403.198
-1.126,1.549,0.608,205.994,-45.837,329.651
-1.141,1.454,0.712,182.251,-69.092,272.583
-1.204,1.388,0.808,143.188,-80.872,234.009
-1.228,1.372,0.842,98.938,-78.003,209.045
-1.240,1.359,0.842,68.604,-68.909,189.453
-1.282,1.321,0.846,60.364,-58.105,168.579
-1.352,1.281,0.858,66.101,-46.936,149.109
-1.437,1.267,0.883,72.021,-37.903,136.475
-1.509,1.314,0.892,69.702,-30.945,133.545
-1.565,1.444,0.881,61.707,-23.071,136.230
-1.668,1.639,0.887,54.626,-17.151,137.695
-1.761,1.846,0.897,50.842,-13.916,133.545
-1.818,2.052,0.906,53.894,-10.010,122.620
-1.845,2.214,0.922,66.223,-3.723,104.614
-1.851,2.310,0.933,83.923,5.554,77.942
-1.855,2.348,0.934,99.121,17.212,44.373
-1.850,2.346,0.900,106.689,33.325,5.920
-1.828,2.293,0.821,105.835,50.659,-34.912
-1.803,2.193,0.738,98.694,63.599,-73.425
-1.801,2.080,0.659,86.792,70.557,-109.192
-1.790,1.984,0.586,70.740,72.266,-141.052
-1.780,1.898,0.517,54.810,69.763,-167.236
-1.757,1.800,0.469,42.847,63.965,-190.918
-1.704,1.675,0.445,32.593,54.138,-214.355
-1.675,1.547,0.470,21.301,42.175,-236.755
-1.637,1.459,0.514,5.737,31.372,-255.920
-1.622,1.453,0.580,-11.597,20.813,-269.714
-1.593,1.513,0.647,-26.917,12.512,-278.137
-1.558,1.580,0.720,-35.339,7.446,-287.659
-1.507,1.599,0.805,-38.574,5.798,-305.603
-1.494,1.598,0.893,-41.016,10.132,-330.627
-1.531,1.592,0.961,-45.654,20.874,-358.032
-1.515,1.545,0.984,-51.208,35.217,-385.803
-1.505,1.485,0.998,-55.359,50.476,-416.504
-1.507,1.386,0.986,-57.922,65.247,-447.937
-1.495,1.228,0.935,-60.303,80.566,-478.760
-1.492,1.062,0.870,-61.646,96.436,-508.362
-1.479,0.892,0.802,-61.646,108.215,-535.583
-1.445,0.703,0.716,-61.768,114.624,-556.335
-1.367,0.512,0.677,-64.941,119.690,-570.679
-1.284,0.295,0.703,-75.867,116.699,-578.979
-1.179,0.046,0.742,-101.563,108.521,-582.397
-1.071,-0.195,0.760,-143.921,105.408,-582.092
-0.921,-0.430,0.716,-198.425,106.567,-580.627
-0.754,-0.648,0.639,-252.441,105.896,-577.087
-0.584,-0.861,0.555,-296.082,100.342,-568.420
-0.429,-1.076,0.509,-321.777,89.172,-552.429
-0.268,-1.323,0.499,-329.041,73.792,-527.588
-0.070,-1.545,0.522,-322.876,58.594,-491.089
0.154,-1.768,0.538,-309.387,50.293,-438.171
0.266,-1.843,0.529,-277.161,54.565,-368.713
0.315,-1.800,0.479,-207.581,65.186,-283.386
0.389,-1.675,0.371,-120.178,77.759,-195.007
0.505,-1.491,0.208,-45.044,89.111,-122.559
0.591,-1.267,0.028,2.197,95.398,-71.655
0.635,-1.021,-0.121,33.997,92.346,-36.499
0.616,-0.815,-0.190,61.646,77.881,-11.169
0.616,-0.638,-0.193,77.759,56.335,5.798
0.643,-0.473,-0.157,80.078,35.400,18.555
0.667,-0.305,-0.110,69.397,19.897,26.672
0.698,-0.173,-0.067,51.819,11.414,27.222
0.752,-0.102,-0.049,31.616,6.348,17.700
0.795,-0.088,-0.048,11.292,5.310,-0.305
0.806,-0.126,-0.062,-7.568,6.714,-19.592
0.806,-0.194,-0.102,-23.071,9.277,-32.288
0.790,-0.246,-0.149,-32.104,10.376,-35.095
0.793,-0.273,-0.188,-30.884,7.080,-30.823
0.808,-0.268,-0.195,-18.738,-0.916,-21.851
0.813,-0.222,-0.168,0.183,-9.888,-9.399
0.835,-0.151,-0.114,21.240,-15.869,2.869
0.844,-0.073,-0.065,38.635,-16.235,13.000
0.859,-0.009,-0.041,47.852,-10.925,18.066
0.870,0.021,-0.040,49.011,-4.211,18.372
0.876,0.022,-0.060,43.579,2.380,15.564
0.888,0.013,-0.096,33.447,8.301,12.329
0.893,0.001,-0.128,21.362,11.475,11.963
0.884,0.006,-0.135,10.071,11.108,15.930
0.888,0.028,-0.131,-0.244,8.179,21.484
0.908,0.067,-0.120,-6.592,4.395,26.672
0.914,0.116,-0.096,-8.301,0.427,30.945
0.919,0.150,-0.069,-5.676,-1.770,33.142
0.927,0.176,-0.056,-0.671,0.061,32.776
0.930,0.202,-0.067,5.615,5.493,30.945
0.923,0.215,-0.089,12.573,10.620,28.381
0.925,0.210,-0.119,19.653,13.916,24.475
0.937,0.182,-0.147,25.513,14.709,20.142
0.948,0.154,-0.163,28.381,13.428,16.785
0.944,0.151,-0.176,28.076,10.010,17.151
0.942,0.164,-0.179,26.855,6.531,20.081
0.958,0.176,-0.174,26.611,2.991,22.583
0.372,0.861,-0.123,81.604,10.071,138.672
0.315,0.795,-0.100,83.557,2.747,126.526
0.254,0.740,-0.071,82.458,-5.676,117.920
0.316,0.698,-0.036,73.792,-12.939,113.892
0.326,0.686,0.017,56.702,-22.827,116.516
0.297,0.715,0.071,35.400,-28.625,121.521
0.255,0.778,0.111,14.587,-31.067,127.502
0.250,0.847,0.131,-0.244,-32.837,132.874
0.214,0.902,0.144,-6.165,-33.325,136.963
0.194,0.948,0.138,-4.333,-30.151,138.367
0.170,0.981,0.131,4.700,-26.184,137.756
0.149,1.007,0.131,21.057,-23.926,136.658
0.118,1.043,0.155,39.978,-24.536,136.108
0.080,1.087,0.194,57.617,-28.320,138.306
0.041,1.141,0.240,70.190,-31.799,142.212
0.006,1.206,0.275,76.721,-32.776,145.874
0.010,1.284,0.283,78.430,-31.189,145.081
-0.045,1.340,0.279,80.200,-28.992,139.587
-0.084,1.382,0.268,83.130,-22.461,125.183
-0.115,1.398,0.235,85.632,-11.169,101.074
-0.124,1.323,0.200,85.083,-3.235,70.007
-0.141,1.174,0.170,74.768,0.671,35.828
-0.183,0.966,0.092,47.852,4.883,4.639
-0.272,0.745,-0.021,6.592,11.353,-21.057
-0.246,0.487,-0.221,-48.096,14.832,-41.138
-0.247,0.140,-0.408,-115.295,8.179,-55.420
-0.152,-0.267,-0.578,-194.824,-7.568,-64.392
-0.172,-0.638,-0.679,-282.288,-39.001,-58.899
-0.250,-0.991,-0.699,-360.352,-82.947,-29.358
-0.313,-1.244,-0.602,-401.794,-126.648,22.583
-0.395,-1.433,-0.330,-381.714,-164.062,96.191
-0.703,-1.377,0.143,-280.762,-184.998,189.697
-1.040,-1.264,0.662,-116.638,-184.509,297.974
-1.299,-0.820,0.969,23.437,-158.813,410.278
-1.405,-0.122,0.987,97.046,-118.774,516.479
-1.496,0.520,0.983,146.851,-78.430,581.482
-1.573,0.895,0.995,195.862,-39.001,591.553
-1.665,1.059,0.999,226.746,-3.540,556.152
-1.771,1.196,1.000,234.497,18.738,500.549
-1.903,1.441,0.975,230.530,20.325,458.435
-2.021,1.713,0.962,226.746,7.324,447.021
-2.113,1.970,0.975,226.685,-4.822,449.463
-2.044,2.203,0.942,229.797,-6.165,444.153
-1.968,2.405,0.920,234.253,-5.981,421.265
-1.856,2.511,0.909,234.070,-11.230,378.296
-1.775,2.555,0.925,224.121,-18.433,314.026
-1.662,2.473,0.975,202.026,-24.658,233.582
-1.552,2.298,1.034,164.795,-25.391,146.484
-1.492,2.093,1.036,117.126,-12.939,66.162
-1.455,1.854,0.972,73.669,9.155,3.418
-1.420,1.599,0.857,46.143,32.471,-40.833
-1.370,1.362,0.748,34.241,49.072,-70.435
-1.335,1.168,0.679,33.203,57.251,-87.830
-1.320,1.047,0.626,37.292,60.974,-95.276
-1.324,0.980,0.587,44.495,62.805,-93.994
-1.329,0.945,0.554,53.284,61.218,-88.013
-1.296,0.928,0.524,63.782,55.908,-81.482
-1.264,0.934,0.538,74.036,46.692,-76.538
-1.263,0.972,0.588,79.651,36.072,-72.632
-1.257,1.051,0.648,79.163,29.724,-70.068
-1.270,1.162,0.702,75.134,29.236,-71.045
-1.279,1.272,0.731,72.388,32.898,-77.148
-1.311,1.366,0.749,72.205,39.429,-92.651
-1.338,1.449,0.755,71.655,47.852,-112.488
-1.369,1.520,0.765,70.984,55.359,-129.944
-1.384,1.585,0.782,67.444,61.646,-146.240
-1.419,1.633,0.807,60.913,67.139,-165.588
-1.434,1.664,0.821,52.185,71.350,-190.552
-1.449,1.708,0.864,44.556,73.975,-217.651
-1.495,1.748,0.936,36.926,72.021,-242.249
-1.546,1.769,1.003,26.672,71.533,-265.869
-1.577,1.736,1.028,12.268,79.285,-294.678
-1.521,1.591,1.020,-6.042,91.431,-328.857
-1.477,1.415,1.003,-34.485,102.356,-364.014
-1.445,1.296,0.992,-73.547,108.459,-395.325
-1.420,1.182,0.984,-115.295,104.858,-418.457
-1.384,1.078,1.000,-151.306,98.633,-437.500
-1.348,1.025,1.034,-177.917,90.210,-455.322
-1.315,0.933,1.064,-193.787,80.872,-466.919
-1.273,0.814,1.065,-202.209,79.163,-477.783
-1.217,0.680,1.019,-203.369,82.886,-491.699
-1.128,0.525,0.942,-196.533,90.149,-506.226
-1.027,0.355,0.833,-181.946,100.403,-517.822
-0.934,0.202,0.719,-162.048,110.657,-524.231
-0.837,0.060,0.613,-137.085,116.211,-522.827
-0.719,-0.083,0.522,-110.474,115.845,-515.442
-0.602,-0.208,0.451,-84.778,111.938,-503.296
-0.478,-0.323,0.382,-64.270,108.215,-484.863
-0.347,-0.418,0.319,-49.561,107.117,-461.121
-0.222,-0.505,0.256,-41.565,105.591,-434.021
-0.114,-0.580,0.196,-39.063,103.210,-403.015
-0.009,-0.648,0.137,-42.358,100.708,-372.498
0.091,-0.709,0.082,-50.110,97.595,-343.994
0.180,-0.766,0.033,-60.303,91.797,-317.566
0.264,-0.829,-0.012,-71.960,83.801,-292.419
0.332,-0.881,-0.042,-85.144,75.134,-267.639
0.388,-0.903,-0.078,-98.267,66.345,-241.272
0.445,-0.911,-0.108,-108.459,56.091,-214.172
0.496,-0.909,-0.125,-112.061,44.128,-187.744
0.533,-0.896,-0.120,-108.215,30.823,-162.659
0.576,-0.884,-0.099,-97.778,16.846,-138.550
0.617,-0.861,-0.053,-83.191,3.723,-114.319
0.626,-0.802,0.004,-64.453,-5.493,-86.853
0.628,-0.704,0.060,-42.725,-9.216,-57.617
0.644,-0.588,0.093,-18.616,-8.118,-30.884
0.677,-0.484,0.094,3.723,-5.615,-10.681
0.717,-0.397,0.098,22.461,-2.075,1.343
0.742,-0.340,0.097,35.889,1.648,7.507
0.768,-0.297,0.096,42.786,6.104,11.047
0.766,-0.257,0.100,41.565,11.047,14.587
0.746,-0.206,0.087,32.593,15.198,18.311
0.750,-0.156,0.049,20.386,18.372,21.057
0.780,-0.120,0.003,9.338,18.311,21.912
0.811,-0.102,-0.022,0.793,13.855,21.240
0.829,-0.099,-0.028,-6.287,6.958,20.081
0.834,-0.106,-0.015,-13.916,-0.183,19.531
0.842,-0.108,0.001,-23.132,-6.226,20.020
0.847,-0.093,0.017,-31.921,-10.681,22.766
0.859,-0.066,0.028,-37.109,-12.512,27.344
0.688,0.521,-0.074,92.773,29.602,138.184
0.652,0.544,-0.112,97.717,30.457,139.893
0.631,0.578,-0.147,102.356,30.701,142.273
0.612,0.616,-0.160,106.140,26.733,146.729
0.571,0.665,-0.151,108.154,18.372,151.733
0.542,0.727,-0.132,107.544,9.827,154.358
0.544,0.778,-0.118,104.675,2.075,154.358
0.540,0.823,-0.107,99.670,-4.089,151.489
0.520,0.860,-0.090,93.384,-8.301,146.057
0.523,0.877,-0.075,84.290,-11.475,139.404
0.429,0.897,-0.067,72.266,-12.390,131.653
0.440,0.893,-0.085,58.105,-12.085,118.896
0.415,0.845,-0.095,40.894,-12.878,104.431
0.327,0.748,-0.139,17.883,-11.597,89.600
0.308,0.584,-0.216,-10.254,-10.742,78.308
0.289,0.418,-0.272,-46.692,-18.555,76.111
0.205,0.281,-0.303,-90.027,-33.142,84.167
0.088,0.134,-0.303,-131.226,-50.171,97.900
0.130,-0.069,-0.255,-158.508,-71.716,114.990
0.136,-0.265,-0.132,-164.490,-95.032,138.672
0.021,-0.423,0.007,-145.874,-104.492,172.668
-0.103,-0.523,0.104,-101.196,-92.407,214.233
-0.245,-0.609,0.145,-37.109,-66.406,257.935
-0.332,-0.691,0.141,29.968,-39.124,298.340
-0.443,-0.755,0.184,86.304,-22.217,334.961
-0.676,-0.737,0.333,122.498,-15.930,368.835
-0.859,-0.551,0.484,140.320,-17.639,406.189
-1.055,-0.307,0.647,152.832,-22.400,450.928
-1.222,-0.073,0.757,166.504,-20.203,485.962
-1.318,0.201,0.781,181.580,-11.475,507.629
-1.391,0.472,0.801,199.097,-3.052,522.522
-1.422,0.673,0.827,217.285,4.761,527.588
-1.461,0.823,0.872,229.980,13.367,516.663
-1.459,0.912,0.899,232.300,21.667,491.821
-1.510,0.959,0.905,223.511,28.687,458.252
-1.546,1.032,0.873,209.534,31.982,425.415
-1.544,1.137,0.854,194.275,23.987,403.625
-1.581,1.251,0.880,176.880,7.019,393.555
-1.620,1.377,0.917,153.931,-4.822,387.817
-1.631,1.500,0.947,126.709,-5.493,376.953
-1.586,1.601,0.914,99.243,2.319,353.271
-1.609,1.673,0.888,79.956,12.146,314.209
-1.578,1.677,0.842,70.984,18.799,262.207
-1.565,1.601,0.812,72.144,24.780,203.796
-1.604,1.464,0.800,77.087,29.358,147.705
-1.654,1.326,0.790,77.454,32.654,106.995
-1.751,1.259,0.788,71.533,34.546,84.534
-1.787,1.249,0.778,63.904,37.842,72.571
-1.835,1.265,0.765,57.678,41.077,62.256
-1.885,1.292,0.759,55.664,41.626,49.133
-1.938,1.339,0.745,55.786,40.894,33.386
-1.957,1.408,0.724,56.091,37.537,17.517
-1.960,1.485,0.725,57.007,30.823,0.305
-1.959,1.551,0.752,57.556,23.621,-19.409
-1.944,1.598,0.795,52.246,17.029,-43.091
-1.935,1.626,0.837,38.940,12.085,-69.092
-1.933,1.643,0.855,19.958,11.169,-97.595
-1.929,1.634,0.849,0.305,12.878,-130.127
-1.895,1.590,0.822,-14.343,14.465,-167.419
-1.894,1.530,0.812,-20.508,14.832,-204.590
-1.919,1.453,0.809,-20.386,14.832,-238.342
-1.944,1.361,0.789,-16.541,16.602,-266.479
-1.906,1.266,0.768,-10.864,17.029,-289.001
-1.868,1.167,0.761,-6.714,12.878,-307.068
-1.814,1.076,0.762,-8.362,5.249,-324.341
-1.736,0.992,0.773,-17.883,-2.380,-338.501
-1.667,0.965,0.787,-38.269,-7.751,-349.609
-1.618,1.048,0.797,-64.148,-10.193,-355.164
-1.581,1.176,0.810,-85.876,-13.245,-356.812
-1.557,1.328,0.861,-101.135,-16.846,-364.868
-1.552,1.476,0.960,-114.502,-21.667,-379.883
-1.615,1.570,1.088,-129.272,-23.621,-398.560
-1.689,1.566,1.229,-148.621,-18.738,-426.819
-1.772,1.467,1.314,-174.744,-9.277,-467.468
-1.787,1.284,1.283,-205.566,-2.075,-513.428
-1.776,1.014,1.248,-227.722,0.305,-556.396
-1.720,0.729,1.215,-236.023,-2.136,-591.309
-1.623,0.448,1.190,-231.201,-3.845,-612.549
-1.483,0.207,1.182,-219.788,-1.831,-621.460
-1.339,0.060,1.167,-208.923,4.456,-613.770
-1.227,-0.003,1.112,-200.928,14.771,-588.623
-1.106,-0.016,1.006,-192.322,31.128,-556.519
-0.968,-0.020,0.875,-178.772,50.537,-533.569
-0.893,-0.036,0.785,-162.781,66.650,-522.034
-0.840,-0.144,0.699,-154.053,76.782,-517.517
-0.746,-0.332,0.613,-155.945,82.947,-518.616
-0.667,-0.537,0.521,-168.945,83.801,-518.677
-0.560,-0.731,0.422,-188.538,78.613,-513.672
-0.434,-0.924,0.324,-205.933,67.871,-503.540
-0.276,-1.144,0.243,-214.050,54.932,-490.051
-0.119,-1.393,0.175,-207.642,45.410,-472.839
0.041,-1.638,0.122,-178.040,38.879,-447.327
0.137,-1.841,0.106,-120.483,32.104,-406.433
0.232,-1.976,0.078,-51.575,28.625,-345.459
0.322,-1.989,0.009,3.601,30.151,-268.616
0.416,-1.852,-0.109,32.654,31.616,-185.425
0.504,-1.604,-0.222,37.354,27.771,-108.826
0.555,-1.332,-0.234,30.090,15.686,-51.758
0.571,-1.064,-0.179,17.090,-1.099,-12.451
0.589,-0.827,-0.101,0.671,-15.381,14.221
0.602,-0.625,-0.023,-13.123,-25.269,29.602
0.633,-0.472,0.037,-20.630,-29.053,36.255
0.649,-0.359,0.076,-21.851,-27.771,37.231
0.676,-0.298,0.091,-18.372,-23.315,32.898
0.703,-0.279,0.082,-10.925,-16.479,24.841
0.732,-0.279,0.062,-1.831,-9.399,17.761
0.745,-0.287,0.032,5.737,-4.211,15.503
0.781,-0.308,-0.012,9.460,1.221,15.991
0.796,-0.331,-0.065,10.803,4.761,18.066
0.803,-0.346,-0.112,12.146,5.249,21.301
0.820,-0.343,-0.147,14.648,3.418,27.527
0.842,-0.312,-0.166,16.846,0.183,36.926
0.865,-0.245,-0.165,17.273,-4.395,46.143
0.878,-0.162,-0.145,19.104,-10.681,53.772
0.899,-0.082,-0.109,23.132,-17.212,59.631
0.918,-0.002,-0.066,27.405,-21.790,63.782
0.934,0.069,-0.031,30.457,-22.949,65.918
0.971,0.131,-0.016,31.311,-18.616,66.040
0.983,0.170,-0.013,29.419,-11.169,63.171
0.854,0.040,0.078,74.463,46.875,100.403
0.848,0.114,0.084,73.914,47.424,112.854
0.839,0.172,0.093,76.355,49.255,121.948
0.812,0.217,0.096,80.139,51.697,128.784
0.779,0.271,0.067,84.106,57.617,136.353
0.720,0.313,0.025,87.646,63.904,144.531
0.730,0.356,-0.018,90.210,66.589,152.222
0.663,0.430,-0.031,91.187,64.514,161.987
0.627,0.530,-0.065,90.515,64.941,171.936
0.629,0.626,-0.109,90.088,65.735,178.467
0.531,0.725,-0.133,91.797,64.331,180.847
0.495,0.821,-0.182,94.727,63.232,179.016
0.497,0.882,-0.211,96.802,58.105,175.476
0.467,0.949,-0.235,93.079,51.514,170.776
0.408,1.042,-0.258,84.290,46.204,163.818
0.414,1.102,-0.282,72.510,39.673,153.198
0.400,1.133,-0.282,58.777,32.227,136.047
0.386,1.120,-0.280,41.992,26.794,113.159
0.393,1.064,-0.294,21.667,23.193,87.036
0.370,0.970,-0.309,1.221,20.020,61.035
0.344,0.844,-0.328,-14.648,17.761,37.231
0.301,0.703,-0.335,-23.010,15.869,19.775
0.251,0.558,-0.329,-23.437,14.160,8.911
0.227,0.400,-0.321,-17.029,12.024,2.808
0.164,0.245,-0.289,-8.301,9.827,0.488
0.026,0.024,-0.285,-1.526,7.324,1.892
0.123,-0.272,-0.310,2.991,5.554,4.395
0.078,-0.597,-0.292,-1.221,-2.136,15.320
0.015,-0.962,-0.262,-8.728,-15.991,39.856
0.014,-1.279,-0.134,-1.648,-37.659,83.557
-0.037,-1.460,0.061,23.987,-59.753,149.231
-0.277,-1.474,0.269,55.054,-69.946,228.027
-0.408,-1.383,0.395,85.815,-61.646,304.199
-0.635,-1.281,0.530,108.948,-45.105,372.070
-1.002,-1.165,0.651,121.033,-26.245,430.054
-1.398,-0.911,0.712,135.376,-8.301,481.567
-1.776,-0.550,0.786,158.264,1.709,538.513
-2.170,-0.063,0.901,181.091,3.113,590.942
-2.370,0.532,0.974,194.824,-7.385,631.409
-2.444,1.045,1.047,201.477,-21.912,661.133
-2.462,1.441,1.115,200.928,-19.653,663.147
-2.359,1.611,1.126,199.158,-0.244,628.479
-2.285,1.621,1.141,196.472,23.865,562.744
-2.231,1.680,1.083,195.007,41.565,488.953
-2.154,1.760,1.051,204.651,40.771,437.683
-2.127,1.824,1.063,213.928,32.532,411.743
-2.109,1.964,1.029,205.078,36.499,394.287
-2.043,2.134,0.922,182.556,49.438,374.573
-1.971,2.249,0.826,156.311,56.213,342.896
-1.940,2.287,0.755,130.920,56.091,293.396
-1.838,2.218,0.663,107.971,55.786,229.309
-1.751,2.053,0.591,91.187,51.575,157.043
-1.883,1.835,0.669,78.918,46.753,89.722
-1.877,1.575,0.627,61.035,45.410,39.673
-1.916,1.438,0.602,53.040,45.227,11.475
-1.935,1.385,0.588,62.988,40.649,0.488
-1.983,1.399,0.628,78.552,32.898,-0.610
-1.908,1.487,0.660,83.130,27.222,-0.183
-1.899,1.637,0.700,71.167,23.315,-5.981
-1.894,1.790,0.740,52.856,20.752,-24.902
-1.931,1.922,0.762,37.109,19.714,-56.458
-1.967,2.004,0.773,30.273,18.250,-93.201
-2.030,2.047,0.796,31.494,15.625,-133.057
-2.112,2.082,0.812,32.837,15.625,-174.561
-2.146,2.052,0.810,29.053,16.785,-216.858
-2.172,1.986,0.809,17.944,16.541,-260.315
-2.209,1.917,0.814,-2.747,15.137,-304.321
-2.191,1.871,0.828,-29.846,12.451,-343.262
-2.230,1.848,0.843,-59.021,8.850,-376.160
-2.240,1.832,0.872,-83.008,4.578,-408.936
-2.278,1.779,0.965,-102.234,-4.028,-442.688
-2.252,1.652,1.056,-122.620,-11.169,-474.792
-2.201,1.468,1.162,-148.254,-13.977,-507.690
-2.186,1.239,1.245,-181.152,-14.038,-539.612
-2.087,0.993,1.267,-215.637,-12.329,-567.261
-2.005,0.807,1.288,-240.356,-13.428,-587.280
-1.927,0.695,1.296,-248.535,-19.714,-598.328
-1.803,0.565,1.325,-237.671,-24.353,-598.816
-1.694,0.400,1.335,-218.506,-15.686,-598.633
-1.582,0.255,1.272,-204.285,8.972,-603.699
-1.474,0.122,1.143,-197.021,39.307,-607.666
-1.376,-0.062,0.982,-192.810,63.904,-608.337
-1.269,-0.249,0.812,-192.566,78.491,-605.713
-1.130,-0.402,0.681,-196.777,79.102,-594.421
-0.980,-0.549,0.590,-205.811,64.514,-570.984
-0.839,-0.685,0.520,-216.858,45.898,-541.199
-0.637,-0.834,0.470,-223.145,28.381,-511.414
-0.439,-0.984,0.459,-218.262,11.597,-482.178
-0.239,-1.140,0.465,-201.721,-1.404,-450.684
-0.035,-1.294,0.468,-172.791,-8.423,-416.138
0.163,-1.437,0.481,-131.836,-11.108,-378.845
0.343,-1.556,0.471,-86.487,-7.080,-337.158
0.473,-1.609,0.412,-46.875,6.348,-291.199
0.539,-1.573,0.301,-16.602,26.123,-243.469
0.588,-1.500,0.168,5.493,43.762,-195.923
0.618,-1.392,0.038,17.456,54.016,-149.780
0.628,-1.237,-0.058,17.883,55.664,-104.004
0.640,-1.068,-0.101,9.033,47.363,-61.035
0.658,-0.887,-0.100,-4.944,34.058,-25.269
0.675,-0.701,-0.064,-18.250,20.691,0.793
0.695,-0.541,-0.014,-27.161,10.681,18.799
0.708,-0.411,0.011,-32.227,8.240,29.236
0.735,-0.317,-0.004,-31.494,11.353,32.715
0.755,-0.260,-0.033,-22.522,15.259,29.785
0.751,-0.205,-0.072,-8.362,18.250,26.550
0.756,-0.171,-0.103,5.920,19.287,25.757
0.767,-0.161,-0.131,15.564,17.944,26.733
0.787,-0.162,-0.157,18.066,15.564,27.893
0.816,-0.169,-0.179,15.381,12.695,29.480
0.813,-0.149,-0.199,10.010,8.789,32.227
0.803,-0.086,-0.216,8.057,4.395,36.682
0.803,-0.010,-0.226,13.000,2.319,42.480
0.828,0.038,-0.231,21.912,1.282,46.631
0.825,0.063,-0.223,29.541,-0.610,47.974
0.880,0.072,-0.233,32.532,-1.038,47.791
0.922,0.080,-0.233,30.762,-2.563,48.584
0.943,0.098,-0.217,27.039,-5.798,51.208
0.943,0.145,-0.193,23.376,-8.972,55.176
0.943,0.216,-0.169,21.790,-12.024,60.974
0.838,0.498,-0.151,13.855,15.320,20.447
0.831,0.495,-0.159,8.423,15.137,22.156
0.829,0.498,-0.162,6.226,14.404,25.330
0.827,0.484,-0.160,7.446,12.939,27.710
0.816,0.462,-0.153,9.338,11.902,28.870
0.809,0.446,-0.161,10.193,12.146,31.616
0.810,0.426,-0.176,10.925,13.000,35.706
0.810,0.406,-0.199,11.414,13.489,39.429
0.806,0.378,-0.216,11.841,13.000,44.373
0.791,0.358,-0.225,11.658,11.719,50.659
0.765,0.350,-0.236,10.559,10.376,58.594
0.744,0.350,-0.255,10.986,8.911,66.406
0.703,0.374,-0.260,14.771,7.141,74.463
0.688,0.393,-0.268,20.813,5.005,81.543
0.634,0.417,-0.256,29.236,1.526,86.609
0.597,0.446,-0.253,38.574,-0.671,90.820
0.552,0.475,-0.241,47.546,-1.648,95.276
0.498,0.500,-0.232,55.359,-3.174,98.328
0.467,0.503,-0.227,61.890,-5.615,98.755
0.449,0.474,-0.221,64.270,-9.705,95.459
0.413,0.421,-0.216,61.218,-15.137,91.187
0.351,0.334,-0.199,51.758,-21.057,87.280
0.282,0.200,-0.180,35.034,-26.611,84.473
0.203,0.034,-0.181,11.047,-32.166,83.923
0.077,-0.134,-0.220,-16.724,-40.405,88.745
0.042,-0.343,-0.307,-42.175,-54.138,100.159
0.027,-0.593,-0.375,-60.425,-76.294,120.117
-0.111,-0.844,-0.327,-73.853,-103.882,148.499
-0.209,-1.078,-0.208,-89.844,-124.023,182.922
-0.368,-1.247,-0.037,-109.802,-130.981,227.112
-0.575,-1.256,0.126,-126.587,-122.559,280.212
-0.704,-1.179,0.280,-126.099,-101.257,337.708
-0.901,-1.010,0.439,-97.656,-75.867,388.977
-1.114,-0.848,0.609,-43.396,-51.086,430.359
-1.381,-0.653,0.822,24.719,-31.677,466.919
-1.647,-0.366,1.011,87.891,-16.296,500.244
-1.860,-0.004,1.127,134.521,-1.221,530.640
-1.972,0.394,1.156,170.410,11.780,554.749
-2.056,0.751,1.144,203.247,18.677,569.214
-2.112,1.020,1.124,233.276,21.301,570.923
-2.089,1.215,1.093,252.014,23.743,560.608
-2.043,1.360,1.054,255.127,23.804,544.617
-2.066,1.511,1.052,244.141,23.865,526.489
-2.028,1.688,1.005,221.130,26.855,504.211
-1.981,1.880,0.962,194.336,29.236,477.356
-2.007,2.122,0.931,170.837,29.663,441.406
-1.940,2.290,0.879,155.273,34.241,392.456
-1.836,2.347,0.847,145.874,36.194,333.557
-1.792,2.336,0.831,136.047,38.208,268.738
-1.718,2.265,0.784,120.789,43.701,208.374
-1.649,2.184,0.729,101.929,50.232,159.363
-1.614,2.094,0.671,84.412,57.861,120.422
-1.593,2.003,0.592,68.787,65.491,86.731
-1.565,1.905,0.517,56.641,69.031,55.969
-1.543,1.792,0.477,50.720,66.772,29.419
-1.542,1.678,0.462,46.143,60.059,7.812
-1.534,1.588,0.463,38.757,52.307,-7.874
-1.530,1.537,0.477,28.870,44.800,-18.799
-1.547,1.523,0.504,19.043,37.842,-27.283
-1.579,1.543,0.524,11.780,33.020,-36.194
-1.606,1.584,0.525,10.620,31.128,-46.753
-1.662,1.615,0.520,16.235,29.785,-60.730
-1.674,1.612,0.517,25.208,27.283,-79.224
-1.724,1.561,0.519,31.860,26.062,-101.074
-1.783,1.487,0.507,32.776,26.184,-124.390
-1.837,1.403,0.491,26.672,22.949,-144.714
-1.870,1.345,0.469,14.771,15.808,-157.532
-1.880,1.336,0.442,0.488,6.042,-160.278
-1.883,1.384,0.413,-11.658,-4.150,-155.396
-1.871,1.486,0.393,-18.616,-15.564,-149.963
-1.840,1.600,0.400,-20.020,-29.846,-152.161
-1.793,1.687,0.444,-19.592,-43.640,-166.748
-1.766,1.705,0.522,-22.522,-54.199,-192.139
-1.720,1.654,0.602,-32.837,-59.509,-225.830
-1.698,1.558,0.665,-49.988,-60.059,-262.878
-1.659,1.447,0.707,-68.604,-56.885,-299.622
-1.580,1.317,0.728,-82.520,-52.979,-331.604
-1.517,1.228,0.757,-88.196,-50.720,-356.995
-1.487,1.184,0.806,-86.060,-46.997,-375.549
-1.455,1.167,0.877,-79.773,-40.710,-389.282
-1.418,1.186,0.962,-76.599,-33.386,-402.161
-1.359,1.157,1.046,-80.383,-25.940,-416.016
-1.341,1.110,1.118,-94.604,-14.771,-435.608
-1.357,1.063,1.159,-118.286,-2.258,-458.679
-1.355,0.951,1.141,-143.555,9.094,-483.337
-1.344,0.788,1.092,-163.208,19.836,-511.230
-1.328,0.613,1.035,-172.607,28.992,-539.551
-1.268,0.424,0.979,-169.678,34.546,-562.927
-1.224,0.247,0.928,-157.593,38.086,-578.491
-1.183,0.084,0.877,-140.991,42.297,-583.923
-1.079,-0.088,0.784,-121.887,49.561,-582.153
-0.980,-0.264,0.668,-100.342,58.655,-576.233
-0.866,-0.431,0.532,-79.834,66.895,-565.369
-0.717,-0.591,0.396,-62.866,71.594,-547.729
-0.563,-0.758,0.287,-53.345,69.275,-522.888
-0.416,-0.920,0.190,-54.688,61.096,-493.958
-0.239,-1.077,0.101,-66.223,49.133,-461.243
-0.064,-1.212,0.046,-84.412,32.288,-425.598
0.109,-1.332,0.041,-105.713,12.207,-388.062
0.245,-1.431,0.087,-124.329,-4.761,-347.656
0.360,-1.499,0.149,-133.301,-15.442,-304.077
0.433,-1.521,0.204,-128.479,-19.409,-259.033
0.484,-1.499,0.232,-107.605,-16.663,-212.280
0.545,-1.458,0.221,-70.923,-8.728,-163.940
0.582,-1.392,0.203,-28.076,1.343,-117.004
0.611,-1.286,0.163,5.188,12.085,-71.777
0.655,-1.140,0.091,19.043,22.766,-31.189
0.664,-0.960,0.031,17.151,28.931,1.038
0.657,-0.751,-0.013,11.536,28.992,26.672
0.662,-0.566,-0.025,12.329,25.574,46.753
0.658,-0.418,-0.020,18.127,19.775,59.631
0.662,-0.296,-0.026,24.902,15.076,65.674
0.677,-0.200,-0.033,31.738,12.329,66.528
0.701,-0.121,-0.046,38.086,9.155,64.758
0.724,-0.051,-0.060,42.664,5.188,60.669
0.760,-0.000,-0.083,46.387,2.075,56.091
0.788,0.020,-0.095,48.035,-1.343,49.744
0.814,0.007,-0.080,46.265,-5.615,41.504
0.823,-0.007,-0.062,38.269,-10.864,34.729
0.801,0.551,-0.023,36.682,43.030,29.419
0.780,0.514,-0.032,29.968,43.640,25.024
0.769,0.502,-0.048,24.536,44.067,23.987
0.753,0.517,-0.074,22.705,45.593,25.085
0.722,0.528,-0.122,25.330,48.279,24.597
0.709,0.513,-0.171,33.020,49.988,22.705
0.699,0.476,-0.192,40.833,46.997,21.240
0.695,0.441,-0.191,43.884,41.077,22.034
0.691,0.423,-0.183,40.039,34.607,24.292
0.681,0.410,-0.176,31.433,29.175,25.574
0.662,0.390,-0.174,21.484,25.818,25.330
0.633,0.371,-0.181,13.123,24.597,25.269
0.614,0.346,-0.194,8.301,23.499,26.611
0.587,0.312,-0.200,7.202,21.240,29.114
0.562,0.273,-0.205,8.362,18.982,33.142
0.535,0.228,-0.205,9.521,16.602,38.757
0.493,0.169,-0.198,8.911,14.038,45.044
0.488,0.100,-0.228,5.676,12.756,53.223
0.405,0.026,-0.243,-2.319,12.512,62.378
0.272,-0.115,-0.274,-14.282,9.460,70.679
0.303,-0.294,-0.391,-31.128,3.174,80.505
0.387,-0.498,-0.507,-46.936,-11.169,99.609
0.360,-0.696,-0.529,-56.091,-37.292,128.296
0.222,-0.905,-0.470,-55.664,-62.317,167.480
0.041,-1.101,-0.375,-47.241,-79.773,215.454
-0.117,-1.250,-0.275,-30.029,-86.060,272.095
-0.361,-1.288,-0.152,-1.465,-81.543,338.379
-0.661,-1.232,0.004,40.039,-71.533,405.640
-0.940,-1.044,0.203,89.600,-68.359,465.637
-1.273,-0.743,0.396,135.132,-69.397,517.883
-1.480,-0.457,0.515,169.373,-66.589,559.937
-1.691,-0.135,0.653,196.289,-70.313,582.825
-1.807,0.121,0.785,215.149,-78.369,595.276
-1.826,0.241,0.900,221.985,-83.557,598.877
-1.835,0.254,0.999,213.745,-76.660,587.524
-1.905,0.246,1.042,196.716,-52.185,565.125
-2.024,0.338,0.994,189.453,-25.513,544.312
-2.063,0.472,0.994,205.750,-21.423,540.222
-2.101,0.701,1.019,220.581,-33.264,549.438
-2.123,0.986,1.034,214.661,-43.030,558.655
-2.108,1.240,1.035,190.430,-45.044,558.228
-2.088,1.467,0.999,151.978,-39.917,541.260
-2.022,1.619,0.936,112.183,-32.227,501.892
-1.973,1.651,0.898,79.834,-27.283,440.308
-1.918,1.540,0.853,57.434,-22.888,363.953
-1.903,1.297,0.829,49.011,-17.578,286.255
-1.982,1.030,0.839,55.603,-10.681,226.257
-2.023,0.798,0.845,69.641,0.061,192.017
-2.097,0.672,0.820,81.543,12.695,179.626
-2.112,0.678,0.792,89.111,22.522,182.190
-2.155,0.807,0.788,91.187,26.550,191.528
-2.192,1.010,0.796,86.365,28.381,194.397
-2.194,1.203,0.798,78.491,31.677,180.481
-2.206,1.332,0.798,71.594,35.095,151.123
-2.249,1.386,0.788,66.101,37.781,113.220
-2.255,1.397,0.773,62.256,38.269,72.998
-2.254,1.412,0.789,60.669,35.156,35.950
-2.278,1.445,0.837,59.387,31.372,5.371
-2.254,1.491,0.881,56.946,32.410,-22.278
-2.245,1.559,0.893,52.856,40.161,-51.453
-2.247,1.607,0.868,49.500,53.040,-84.900
-2.265,1.610,0.827,47.241,65.735,-123.901
-2.286,1.585,0.786,44.067,74.463,-165.222
-2.339,1.556,0.762,37.598,78.308,-205.933
-2.334,1.530,0.730,28.015,79.712,-244.446
-2.439,1.583,0.768,15.991,76.416,-279.968
-2.476,1.647,0.727,4.578,73.547,-312.012
-2.562,1.746,0.724,-0.854,71.533,-349.854
-2.686,1.786,0.740,0.305,64.087,-394.409
-2.726,1.776,0.785,1.221,55.054,-446.777
-2.797,1.693,0.914,-1.953,40.649,-502.258
-2.848,1.552,1.083,-16.968,26.184,-556.335
-2.892,1.375,1.271,-50.415,17.822,-605.652
-2.909,1.189,1.465,-100.281,16.113,-649.231
-2.868,0.985,1.650,-160.645,20.569,-683.777
-2.818,0.764,1.781,-226.074,32.227,-709.045
-2.841,0.590,1.804,-289.490,52.002,-728.149
-2.799,0.445,1.655,-339.050,72.449,-744.080
-2.707,0.367,1.468,-350.769,84.412,-755.005
-2.648,0.289,1.336,-319.458,80.078,-759.827
-2.585,0.126,1.221,-258.972,69.397,-760.254
-2.440,-0.107,1.102,-190.918,68.176,-759.827
-2.296,-0.341,1.011,-133.972,75.256,-756.226
-2.076,-0.598,0.913,-98.755,81.848,-744.690
-1.775,-0.875,0.820,-83.069,86.426,-725.830
-1.454,-1.143,0.724,-84.839,91.431,-700.073
-1.188,-1.390,0.616,-99.487,97.168,-662.903
-0.892,-1.619,0.492,-115.417,98.938,-618.225
-0.594,-1.856,0.420,-119.019,94.482,-568.115
-0.341,-2.075,0.395,-112.427,88.684,-513.245
-0.164,-2.222,0.340,-104.492,90.515,-449.646
0.021,-2.274,0.196,-94.177,99.548,-376.831
0.164,-2.249,0.067,-70.801,101.746,-300.537
0.240,-2.126,-0.001,-35.645,93.323,-223.083
0.304,-1.914,-0.036,-4.150,76.904,-147.705
0.390,-1.647,-0.055,10.376,60.852,-84.290
0.432,-1.364,-0.045,12.695,48.584,-36.499
0.462,-1.110,-0.029,11.475,38.208,-5.005
0.458,-0.905,-0.012,12.207,31.616,12.085
0.512,-0.763,-0.022,14.221,31.555,20.752
0.556,-0.662,-0.041,13.977,33.752,27.100
0.573,-0.574,-0.049,9.949,34.180,32.043
0.591,-0.492,-0.060,4.517,32.410,36.682
0.622,-0.411,-0.077,0.183,28.870,41.382
0.656,-0.349,-0.096,-1.038,25.146,43.762
0.692,-0.323,-0.109,0.549,22.644,41.931
0.716,-0.305,-0.128,2.319,22.461,36.255
0.731,-0.275,-0.162,4.150,23.865,31.067
0.749,-0.255,-0.203,7.812,25.574,28.992
0.756,-0.245,-0.237,12.451,25.269,28.992
0.774,-0.251,-0.259,15.991,22.400,28.748
0.804,-0.272,-0.273,17.578,18.250,28.992
0.823,-0.285,-0.273,15.564,14.221,31.372
0.835,-0.267,-0.272,11.475,9.949,36.926
0.861,-0.227,-0.259,8.118,7.019,46.143
0.861,-0.176,-0.229,4.456,6.714,57.739
0.860,-0.109,-0.210,-0.916,7.751,67.139
0.886,-0.044,-0.213,-4.211,9.338,73.242
0.906,0.011,-0.226,-2.808,10.620,75.439
0.911,-0.175,-0.111,117.310,34.424,59.998
0.874,-0.171,-0.139,120.789,39.612,67.017
0.852,-0.152,-0.182,121.643,45.227,75.806
0.835,-0.125,-0.237,120.911,49.988,85.388
0.795,-0.092,-0.291,120.789,52.734,93.689
0.746,-0.066,-0.334,123.108,52.612,102.112
0.703,-0.034,-0.377,124.756,51.208,110.779
0.675,0.005,-0.426,126.953,48.218,120.361
0.653,0.050,-0.466,131.531,43.396,129.089
0.627,0.105,-0.495,138.672,36.926,136.169
0.597,0.156,-0.507,147.156,29.480,142.456
0.566,0.205,-0.507,155.823,22.156,148.010
0.540,0.261,-0.501,162.170,14.038,152.100
0.515,0.318,-0.479,166.321,5.615,155.457
0.487,0.367,-0.443,166.687,-2.502,158.203
0.457,0.400,-0.416,161.316,-9.216,160.156
0.414,0.443,-0.403,150.330,-14.771,159.973
0.383,0.486,-0.414,136.108,-17.212,158.325
0.357,0.501,-0.433,122.437,-20.081,154.846
0.339,0.514,-0.444,110.596,-25.574,149.963
0.317,0.527,-0.435,98.755,-34.485,145.752
0.303,0.525,-0.405,86.548,-45.593,142.517
0.198,0.525,-0.347,72.205,-57.373,137.573
0.222,0.487,-0.321,57.129,-68.481,129.639
0.216,0.402,-0.279,41.748,-79.956,122.009
0.138,0.314,-0.225,25.574,-86.609,113.770
0.008,0.186,-0.209,11.780,-88.623,106.384
-0.100,-0.019,-0.263,6.042,-92.285,101.807
-0.035,-0.333,-0.375,10.437,-109.375,101.990
-0.089,-0.733,-0.370,26.917,-143.250,110.962
-0.182,-1.172,-0.241,48.340,-175.537,140.808
-0.356,-1.495,-0.018,61.646,-196.350,202.759
-0.686,-1.541,0.213,62.134,-202.026,295.349
-1.018,-1.360,0.406,65.002,-191.345,401.917
-1.298,-1.061,0.547,87.097,-173.462,495.422
-1.592,-0.762,0.677,123.413,-151.733,559.265
-1.898,-0.440,0.832,160.767,-133.362,593.628
-2.144,0.040,1.007,195.068,-134.766,618.042
-2.264,0.525,1.185,210.815,-166.687,657.227
-2.348,1.055,1.310,184.509,-194.519,699.829
-2.267,1.545,1.350,140.869,-193.726,721.069
-2.108,2.001,1.302,109.924,-164.856,709.778
-1.946,2.320,1.200,103.149,-122.803,661.255
-1.785,2.406,1.075,117.432,-78.857,571.960
-1.597,2.278,0.929,138.916,-43.518,449.829
-1.527,1.969,0.842,151.123,-24.048,324.585
-1.520,1.555,0.833,139.771,-19.165,230.286
-1.538,1.291,0.831,103.210,-17.639,180.298
-1.586,1.200,0.804,61.218,-13.428,165.710
-1.625,1.218,0.784,35.767,-9.644,167.419
-1.661,1.300,0.774,31.982,-5.432,172.180
-1.675,1.402,0.768,40.039,1.343,170.959
-1.686,1.500,0.740,48.096,9.338,160.828
-1.710,1.570,0.708,50.476,17.944,140.259
-1.721,1.590,0.683,47.852,24.292,110.840
-1.762,1.601,0.664,40.466,26.184,77.881
-1.818,1.591,0.641,33.813,25.818,47.058
-1.828,1.545,0.606,33.508,24.231,20.081
-1.821,1.488,0.581,40.161,21.118,-2.136
-1.790,1.447,0.543,50.171,18.372,-20.325
-1.823,1.442,0.556,58.594,17.029,-34.973
-1.805,1.433,0.521,58.044,14.343,-47.424
-1.749,1.447,0.487,55.969,11.963,-58.411
-1.710,1.461,0.485,56.335,5.432,-71.228
-1.676,1.460,0.506,54.321,-2.319,-86.731
-1.633,1.469,0.531,45.654,-8.789,-105.469
-1.589,1.475,0.567,32.349,-15.625,-125.000
-1.545,1.465,0.610,16.541,-21.667,-146.973
-1.513,1.430,0.654,2.075,-24.719,-172.302
-1.496,1.359,0.683,-8.179,-24.780,-200.012
-1.475,1.274,0.692,-10.742,-22.034,-226.685
-1.408,1.162,0.699,-2.075,-17.700,-250.000
-1.354,1.061,0.708,12.146,-11.963,-268.250
-1.298,0.990,0.708,24.536,-5.798,-280.640
-1.236,0.951,0.713,33.203,0.916,-288.513
-1.197,0.958,0.705,37.415,8.850,-293.030
-1.148,1.008,0.684,37.903,19.775,-297.180
-1.110,1.093,0.687,35.095,28.931,-302.856
-1.101,1.170,0.725,26.306,32.715,-308.960
-1.062,1.208,0.761,8.545,34.973,-321.716
-1.033,1.243,0.815,-16.052,38.452,-343.384
-1.070,1.255,0.877,-46.753,41.504,-368.225
-1.102,1.186,0.917,-80.200,43.335,-393.372
-1.148,1.082,0.953,-111.633,44.617,-421.875
-1.134,0.935,0.941,-139.587,45.959,-449.341
-1.073,0.758,0.897,-163.025,48.950,-472.351
-1.048,0.594,0.843,-177.246,53.528,-488.403
-0.932,0.433,0.770,-179.260,56.824,-496.399
-0.812,0.295,0.728,-168.152,53.162,-495.300
-0.689,0.151,0.699,-147.827,47.363,-486.938
-0.544,0.045,0.677,-122.864,49.011,-472.046
-0.429,0.011,0.649,-99.609,56.641,-450.989
-0.348,0.034,0.612,-78.552,68.176,-424.866
-0.282,0.074,0.563,-58.838,81.177,-402.344
-0.220,0.062,0.494,-41.016,92.957,-387.573
-0.156,-0.023,0.397,-27.405,105.835,-382.324
-0.090,-0.167,0.277,-19.958,118.835,-381.409
0.004,-0.340,0.148,-20.691,126.343,-380.371
0.114,-0.503,0.046,-28.198,124.512,-374.756
0.216,-0.659,-0.024,-41.260,115.479,-362.000
0.324,-0.781,-0.068,-60.669,103.088,-341.003
0.417,-0.850,-0.079,-84.534,89.417,-312.195
0.504,-0.908,-0.072,-107.666,73.914,-276.062
0.563,-0.928,-0.080,-125.122,60.547,-236.511
0.622,-0.902,-0.111,-128.845,50.537,-197.327
0.671,-0.859,-0.125,-115.234,40.100,-161.865
0.711,-0.826,-0.123,-88.562,28.931,-130.859
0.750,-0.799,-0.108,-58.594,21.606,-102.905
0.772,-0.748,-0.101,-33.997,19.653,-75.012
0.800,-0.661,-0.132,-20.203,20.203,-47.241
0.818,-0.555,-0.167,-15.076,19.409,-23.743
0.838,-0.453,-0.176,-12.817,14.526,-6.531
0.832,-0.345,-0.147,-11.292,7.385,6.653
0.829,-0.232,-0.115,-10.742,2.014,18.555
0.840,-0.117,-0.090,-9.033,-1.770,28.076
0.831,-0.009,-0.059,-4.761,-4.822,33.020
0.845,0.060,-0.037,1.343,-4.822,31.738
0.868,0.098,-0.034,7.996,-2.136,25.513
0.888,0.097,-0.042,12.878,2.502,16.968
0.873,0.598,-0.034,83.374,31.860,86.731
0.894,0.672,-0.057,90.332,30.945,75.500
0.861,0.707,-0.061,98.389,32.471,57.800
0.839,0.694,-0.069,104.858,36.499,35.767
0.848,0.641,-0.106,106.140,42.419,15.381
0.812,0.576,-0.149,102.478,47.607,0.183
0.784,0.535,-0.195,95.459,50.171,-8.728
0.773,0.499,-0.237,86.853,48.523,-12.207
0.759,0.475,-0.262,77.271,41.870,-11.047
0.752,0.456,-0.268,67.017,32.227,-7.812
0.751,0.442,-0.259,54.382,21.423,-5.310
0.743,0.429,-0.242,40.039,11.658,-3.296
0.739,0.410,-0.233,24.231,5.615,-2.075
0.738,0.387,-0.238,8.850,1.709,-2.808
0.729,0.360,-0.240,-2.136,-1.343,-4.089
0.721,0.306,-0.236,-7.019,-4.578,-4.944
0.701,0.239,-0.223,-8.606,-7.751,-5.493
0.678,0.162,-0.210,-7.935,-10.498,-3.052
0.638,0.082,-0.207,-6.714,-11.414,2.686
0.609,0.003,-0.222,-5.310,-11.658,10.681
0.570,-0.079,-0.239,-3.723,-13.123,20.142
0.529,-0.181,-0.243,-1.648,-15.198,31.067
0.497,-0.300,-0.250,-2.319,-19.043,44.189
0.441,-0.445,-0.225,-6.775,-25.574,60.669
0.379,-0.605,-0.204,-14.282,-34.607,79.529
0.311,-0.758,-0.185,-22.339,-44.922,101.929
0.252,-0.888,-0.154,-21.667,-56.091,132.629
0.166,-0.979,-0.094,-5.127,-67.078,170.654
0.070,-1.006,-0.028,21.301,-73.669,213.562
-0.064,-1.011,0.026,53.162,-74.951,259.827
-0.191,-0.990,0.067,85.815,-73.364,307.007
-0.364,-0.906,0.088,110.107,-70.129,352.722
-0.561,-0.764,0.092,123.291,-65.857,395.691
-0.785,-0.598,0.143,137.146,-65.674,435.974
-1.040,-0.399,0.268,153.748,-75.256,470.825
-1.331,-0.121,0.531,169.617,-97.839,499.756
-1.490,0.208,0.812,174.744,-132.935,534.668
-1.669,0.640,1.008,159.424,-159.912,578.979
-1.698,1.095,1.103,140.503,-171.936,614.929
-1.711,1.507,1.221,131.592,-173.157,637.634
-1.664,1.811,1.284,124.695,-156.738,638.367
-1.503,2.005,1.245,117.249,-119.629,605.774
-1.306,2.104,1.128,111.572,-74.585,540.649
-1.215,2.110,1.020,109.863,-40.649,454.468
-1.168,1.984,0.941,107.361,-22.339,364.502
-1.153,1.772,0.894,99.243,-17.334,291.992
-1.162,1.578,0.863,85.571,-16.602,244.019
-1.161,1.438,0.843,76.172,-14.282,214.905
-1.204,1.377,0.814,79.346,-11.719,198.547
-1.234,1.367,0.791,97.534,-10.132,192.871
-1.237,1.423,0.796,122.742,-12.634,197.449
-1.249,1.520,0.826,139.160,-15.381,207.458
-1.257,1.619,0.815,133.423,-12.268,209.167
-1.284,1.678,0.749,110.596,-5.615,195.618
-1.281,1.657,0.680,82.214,-4.272,169.434
-1.289,1.583,0.654,53.894,-11.841,139.038
-1.309,1.517,0.671,27.832,-23.621,112.366
-1.331,1.476,0.704,9.644,-31.311,94.055
-1.357,1.464,0.743,4.639,-33.447,80.322
-1.350,1.475,0.776,12.817,-30.823,69.397
-1.357,1.512,0.803,29.419,-24.719,60.852
-1.350,1.576,0.809,47.058,-15.503,53.223
-1.328,1.676,0.793,59.448,-6.836,43.396
-1.344,1.755,0.779,65.552,-0.183,30.396
-1.372,1.783,0.724,62.378,8.545,8.789
-1.392,1.766,0.640,52.368,16.724,-20.813
-1.405,1.685,0.578,40.405,17.456,-54.749
-1.424,1.583,0.565,25.940,8.789,-89.111
-1.463,1.501,0.593,6.775,-7.263,-117.432
-1.485,1.478,0.638,-14.343,-23.499,-135.803
-1.526,1.569,0.699,-33.936,-36.499,-146.301
-1.554,1.704,0.746,-48.279,-44.617,-152.222
-1.589,1.847,0.801,-57.495,-50.110,-162.598
-1.633,1.977,0.863,-65.063,-54.749,-181.946
-1.688,2.064,0.931,-73.364,-57.739,-212.097
-1.730,2.100,0.995,-82.520,-59.692,-252.319
-1.771,2.075,1.079,-91.431,-61.218,-297.913
-1.802,2.011,1.165,-99.976,-59.326,-343.445
-1.842,1.946,1.238,-108.154,-51.636,-385.498
-1.858,1.847,1.294,-116.150,-38.452,-425.537
-1.877,1.738,1.353,-127.136,-22.278,-463.806
-1.897,1.651,1.418,-143.005,-6.409,-497.742
-1.885,1.542,1.490,-165.405,8.484,-525.452
-1.908,1.470,1.541,-195.740,24.719,-552.490
-1.975,1.379,1.559,-228.455,42.053,-580.444
-2.063,1.185,1.533,-253.906,59.814,-612.671
-2.152,0.896,1.441,-265.686,77.393,-651.001
-2.052,0.599,1.265,-255.798,92.957,-688.660
-1.974,0.316,1.145,-219.543,100.708,-714.233
-1.946,0.039,1.030,-171.021,104.248,-725.342
-1.816,-0.213,0.878,-129.578,116.943,-723.328
-1.662,-0.443,0.713,-104.126,132.263,-709.106
-1.476,-0.696,0.554,-97.961,142.395,-683.960
-1.252,-0.970,0.429,-111.145,149.048,-652.161
-1.022,-1.255,0.323,-140.930,152.344,-615.662
-0.797,-1.508,0.218,-181.885,150.574,-575.806
-0.580,-1.729,0.151,-211.792,143.188,-531.616
-0.394,-1.937,0.137,-214.355,130.371,-481.934
-0.253,-2.056,0.099,-197.815,120.728,-425.171
-0.105,-2.138,0.019,-163.269,114.624,-362.244
0.016,-2.209,-0.079,-108.276,108.704,-298.950
0.077,-2.198,-0.167,-48.645,104.614,-239.624
0.156,-2.099,-0.289,-4.578,103.333,-175.415
0.230,-1.927,-0.411,12.451,99.426,-108.765
0.259,-1.676,-0.494,6.592,89.600,-49.011
0.264,-1.398,-0.514,-7.019,71.899,-2.197
0.292,-1.140,-0.491,-19.897,52.185,33.020
0.334,-0.894,-0.441,-32.532,35.583,56.824
0.348,-0.661,-0.380,-41.321,21.790,70.313
0.368,-0.482,-0.333,-43.274,12.329,72.815
0.425,-0.370,-0.336,-39.490,10.071,65.125
0.470,-0.312,-0.364,-32.043,11.292,49.072
0.518,-0.323,-0.400,-21.057,12.268,30.457
0.561,-0.399,-0.428,-8.423,10.193,13.550
0.585,-0.500,-0.443,3.662,6.287,2.930
0.607,-0.582,-0.463,13.489,2.563,1.038
0.623,-0.601,-0.480,21.790,-1.648,7.324
0.645,-0.572,-0.486,27.649,-6.470,18.677
0.674,-0.516,-0.487,28.381,-11.414,31.738
0.850,0.096,-0.241,44.983,4.822,29.480
0.803,0.085,-0.229,48.035,2.502,33.142
0.832,0.072,-0.241,51.819,1.099,36.011
0.833,0.058,-0.227,57.373,-2.197,39.612
0.820,0.056,-0.208,62.134,-6.226,44.312
0.804,0.064,-0.188,66.345,-8.728,50.537
0.809,0.069,-0.178,70.068,-9.583,58.167
0.796,0.078,-0.179,73.486,-8.972,65.857
0.775,0.084,-0.184,77.454,-8.362,73.547
0.760,0.093,-0.193,82.275,-9.338,82.336
0.746,0.122,-0.192,87.402,-12.329,92.407
0.723,0.173,-0.171,91.919,-15.503,104.858
0.708,0.229,-0.150,93.323,-18.066,117.126
0.661,0.296,-0.121,91.309,-19.775,126.465
0.672,0.351,-0.110,88.074,-18.982,132.629
0.650,0.393,-0.098,85.144,-18.677,135.742
0.611,0.433,-0.092,81.665,-18.188,137.024
0.579,0.468,-0.100,78.796,-16.296,138.000
0.541,0.512,-0.108,76.904,-16.174,139.893
0.512,0.584,-0.114,76.599,-18.738,142.456
0.474,0.680,-0.102,79.102,-24.658,145.508
0.429,0.774,-0.070,82.764,-32.471,148.437
0.396,0.846,-0.043,83.313,-37.292,148.132
0.373,0.873,-0.039,78.979,-36.804,142.456
0.363,0.857,-0.053,64.392,-33.752,129.456
0.348,0.794,-0.093,39.673,-31.311,109.009
0.286,0.637,-0.136,10.132,-30.640,84.290
0.196,0.387,-0.172,-20.874,-31.799,59.998
0.222,0.014,-0.201,-52.734,-37.170,42.114
0.306,-0.446,-0.229,-84.412,-46.265,38.269
0.369,-0.984,-0.247,-108.276,-52.673,50.598
0.128,-1.490,-0.201,-98.938,-49.683,86.121
-0.177,-1.913,-0.066,-32.166,-40.039,153.687
-0.532,-2.076,-0.000,60.486,-34.363,254.761
-0.909,-1.914,0.034,135.620,-37.537,381.226
-1.312,-1.407,0.205,186.096,-61.279,505.249
-1.672,-0.804,0.548,216.309,-101.624,604.370
-1.992,-0.203,0.962,219.971,-125.366,658.325
-2.163,0.417,1.288,215.454,-131.042,671.021
-2.194,0.995,1.520,220.581,-138.245,678.833
-2.156,1.381,1.670,224.731,-132.874,688.293
-2.000,1.599,1.635,211.609,-95.093,673.279
-1.824,1.657,1.445,188.965,-41.870,617.249
-1.791,1.560,1.274,173.767,-2.625,525.818
-1.787,1.367,1.157,172.913,11.780,437.195
-1.799,1.236,1.133,181.519,3.967,384.216
-1.838,1.210,1.159,187.500,-9.705,364.929
-1.822,1.267,1.185,186.340,-17.822,356.506
-1.834,1.381,1.182,178.467,-18.311,345.764
-1.794,1.474,1.142,164.307,-15.442,330.383
-1.792,1.570,1.082,148.132,-14.648,312.805
-1.765,1.656,1.010,132.812,-15.564,292.114
-1.739,1.701,0.964,119.873,-17.090,263.489
-1.715,1.687,0.929,107.239,-18.372,223.694
-1.721,1.621,0.894,93.628,-18.127,174.744
-1.754,1.513,0.900,80.017,-20.386,123.840
-1.778,1.397,0.946,66.101,-25.269,80.933
-1.811,1.336,0.993,51.086,-27.832,51.697
-1.849,1.328,1.021,38.391,-24.841,32.349
-1.841,1.342,1.039,30.518,-18.860,15.564
-1.847,1.403,1.051,27.588,-11.169,0.366
-1.863,1.507,1.037,26.672,-1.648,-15.686
-1.870,1.630,0.994,27.771,8.728,-35.828
-1.932,1.743,0.969,33.264,16.174,-61.035
-1.960,1.799,0.953,39.368,21.484,-93.933
-2.022,1.820,0.953,38.818,23.743,-135.071
-2.052,1.809,0.952,30.212,25.513,-181.763
-2.061,1.778,0.949,14.832,26.306,-231.079
-2.058,1.735,0.948,-2.197,27.649,-278.198
-2.059,1.689,0.969,-17.761,29.724,-321.838
-2.136,1.650,1.000,-32.471,32.898,-360.291
-2.135,1.606,0.988,-46.997,38.940,-397.400
-2.158,1.541,1.016,-58.044,41.504,-433.044
-2.167,1.441,1.087,-72.510,40.344,-466.431
-2.127,1.295,1.175,-99.487,38.147,-495.972
-2.083,1.168,1.260,-142.517,35.461,-519.897
-2.041,1.093,1.312,-196.838,31.616,-541.931
-1.988,0.978,1.345,-246.582,24.109,-565.674
-1.956,0.863,1.355,-280.518,18.250,-591.370
-1.978,0.776,1.370,-296.021,14.160,-617.187
-1.969,0.627,1.349,-289.185,11.658,-634.216
-1.859,0.432,1.281,-258.911,17.212,-645.325
-1.769,0.256,1.205,-210.999,29.785,-655.640
-1.653,0.083,1.096,-156.433,47.241,-661.499
-1.541,-0.085,0.963,-104.370,70.984,-659.363
-1.421,-0.245,0.756,-63.171,99.731,-651.611
-1.267,-0.410,0.509,-33.752,127.808,-641.968
-1.089,-0.588,0.278,-14.465,145.325,-630.005
-0.901,-0.763,0.111,-6.348,147.522,-613.159
-0.735,-0.928,0.026,-12.939,137.146,-587.830
-0.535,-1.103,-0.052,-34.302,120.544,-552.063
-0.327,-1.245,-0.121,-63.904,105.164,-513.489
-0.154,-1.366,-0.170,-88.318,89.417,-472.351
-0.013,-1.496,-0.192,-95.154,70.313,-426.941
0.101,-1.597,-0.189,-84.045,51.331,-377.869
0.269,-1.684,-0.188,-64.331,34.241,-323.853
0.378,-1.716,-0.159,-43.884,17.700,-265.076
0.466,-1.670,-0.106,-26.428,5.188,-206.421
0.516,-1.540,-0.050,-12.512,-2.197,-150.085
0.545,-1.362,0.005,-0.305,-4.211,-98.755
0.580,-1.175,0.043,10.132,-1.831,-55.603
0.608,-1.005,0.063,15.686,2.808,-23.804
0.625,-0.846,0.077,16.174,9.888,-1.282
0.629,-0.677,0.078,12.268,17.151,17.578
0.646,-0.527,0.072,6.287,22.400,34.180
0.661,-0.392,0.060,-0.183,26.245,46.021
0.672,-0.274,0.025,-6.226,29.724,51.819
0.706,-0.202,-0.016,-8.484,33.997,50.781
0.724,-0.188,-0.059,-6.653,36.804,44.067
0.731,-0.213,-0.098,-4.395,38.025,35.645
0.737,-0.251,-0.142,-3.601,37.231,29.663
0.747,-0.275,-0.186,-2.991,34.119,28.870
0.757,-0.251,-0.214,0.305,27.405,33.752
0.784,-0.208,-0.220,5.798,18.616,42.236
0.812,-0.156,-0.197,9.521,10.376,50.720
0.839,-0.114,-0.162,9.583,3.235,56.580
0.866,-0.076,-0.129,5.859,-1.587,59.326
0.882,-0.032,-0.101,1.343,-3.479,60.303
0.909,0.010,-0.089,-0.732,-4.517,61.157
0.876,0.227,-0.209,81.421,14.282,60.913
0.853,0.193,-0.212,85.083,14.038,62.317
0.843,0.159,-0.231,87.646,15.442,65.735
0.819,0.134,-0.256,91.492,15.442,72.571
0.822,0.102,-0.277,97.900,13.977,81.116
0.728,0.096,-0.267,105.347,9.338,90.942
0.744,0.107,-0.281,113.831,3.967,103.271
0.723,0.137,-0.251,121.948,-5.310,118.774
0.653,0.185,-0.213,124.634,-15.442,134.155
0.622,0.264,-0.187,122.681,-23.071,147.217
0.580,0.350,-0.144,118.835,-30.396,160.767
0.544,0.439,-0.089,112.793,-34.790,172.729
0.511,0.534,-0.041,105.896,-33.813,181.580
0.479,0.627,-0.013,99.060,-29.785,187.012
0.457,0.714,-0.002,94.910,-27.161,188.904
0.393,0.825,0.042,95.398,-29.541,189.636
0.360,0.956,0.088,98.022,-33.875,191.284
0.336,1.101,0.127,99.854,-35.950,192.383
0.308,1.241,0.141,98.511,-32.776,188.721
0.261,1.353,0.112,93.323,-22.522,175.049
0.235,1.401,0.026,84.778,-9.583,148.010
0.252,1.361,-0.079,75.256,-1.038,108.948
0.228,1.204,-0.160,63.599,0.488,62.317
0.172,0.941,-0.208,45.349,-4.517,16.479
0.102,0.619,-0.253,16.968,-12.451,-20.691
0.054,0.240,-0.289,-20.630,-22.156,-45.349
0.050,-0.155,-0.342,-67.078,-36.377,-56.274
-0.039,-0.523,-0.391,-113.342,-52.551,-52.185
0.093,-0.981,-0.406,-135.559,-73.364,-34.668
0.014,-1.389,-0.164,-110.168,-102.478,3.235
-0.110,-1.747,0.196,-41.687,-128.723,72.205
-0.286,-1.791,0.464,18.494,-129.211,171.082
-0.503,-1.538,0.532,53.040,-104.004,283.325
-0.678,-1.216,0.495,79.651,-73.486,374.268
-0.947,-0.853,0.517,112.976,-59.814,432.312
-1.228,-0.537,0.684,151.672,-67.078,479.126
-1.550,-0.203,0.919,178.223,-73.853,518.494
-1.816,0.287,1.090,193.970,-71.838,545.227
-1.949,0.806,1.232,215.820,-80.444,569.702
-2.023,1.225,1.394,234.375,-90.942,594.421
-2.047,1.582,1.502,236.511,-82.764,603.394
-1.973,1.896,1.486,222.534,-58.838,590.454
-1.933,2.140,1.383,201.721,-31.067,558.777
-1.863,2.321,1.171,183.289,-9.277,507.019
-1.723,2.358,0.991,174.072,-6.653,437.744
-1.620,2.264,0.945,166.504,-18.433,359.375
-1.552,2.071,0.956,148.254,-27.954,282.410
-1.528,1.842,0.968,122.131,-27.527,219.727
-1.569,1.653,0.944,100.647,-20.508,177.124
-1.515,1.503,0.868,98.572,-15.381,153.564
-1.522,1.428,0.860,116.272,-19.348,145.386
-1.530,1.414,0.890,134.033,-23.010,144.714
-1.538,1.481,0.896,133.362,-18.311,141.846
-1.553,1.572,0.858,116.760,-9.338,130.310
-1.556,1.629,0.812,95.337,-5.005,109.253
-1.567,1.642,0.812,77.393,-7.935,84.106
-1.545,1.636,0.842,61.707,-13.977,58.594
-1.531,1.625,0.866,49.805,-16.357,32.532
-1.517,1.592,0.868,45.959,-14.099,3.418
-1.516,1.544,0.870,48.645,-10.803,-25.146
-1.513,1.508,0.847,51.025,-6.470,-49.194
-1.515,1.483,0.814,51.880,-0.732,-69.702
-1.505,1.453,0.772,49.622,2.930,-90.759
-1.494,1.427,0.747,45.044,3.784,-112.610
-1.492,1.406,0.758,36.194,0.000,-133.545
-1.488,1.406,0.791,21.057,-4.883,-152.710
-1.491,1.449,0.833,1.343,-7.935,-170.959
-1.485,1.553,0.873,-16.113,-10.010,-188.354
-1.476,1.698,0.924,-28.503,-13.184,-207.092
-1.474,1.854,0.999,-36.072,-14.832,-231.201
-1.523,1.995,1.083,-45.715,-10.681,-262.573
-1.611,2.088,1.148,-60.425,-1.282,-301.392
-1.672,2.066,1.193,-74.707,9.033,-347.839
-1.726,2.040,1.290,-86.792,16.724,-397.705
-1.816,2.005,1.432,-105.530,17.456,-439.941
-1.875,2.034,1.575,-135.742,19.531,-474.976
-2.145,2.119,1.742,-173.218,23.743,-508.179
-2.418,2.144,1.799,-212.158,38.513,-548.889
-2.590,1.963,1.763,-243.713,62.256,-610.107
-2.735,1.536,1.686,-262.207,86.243,-696.045
-2.796,1.034,1.550,-273.193,103.882,-785.706
-2.832,0.621,1.369,-274.658,112.671,-847.595
-2.824,0.298,1.152,-259.277,112.610,-876.160
-2.687,-0.050,0.911,-222.229,108.459,-880.737
-2.381,-0.411,0.698,-169.556,105.225,-870.178
-1.996,-0.839,0.535,-116.943,102.295,-841.980
-1.567,-1.291,0.402,-78.186,104.980,-796.021
-1.141,-1.678,0.284,-55.054,113.098,-732.239
-0.749,-2.008,0.177,-39.001,117.126,-649.597
-0.446,-2.206,0.045,-24.414,115.295,-557.922
-0.188,-2.316,-0.083,-6.531,111.450,-466.858
0.037,-2.365,-0.173,14.587,104.431,-377.625
0.161,-2.308,-0.221,28.198,94.055,-287.659
0.251,-2.120,-0.241,26.855,78.735,-196.350
0.338,-1.819,-0.255,11.780,61.035,-108.521
0.398,-1.482,-0.213,-6.226,44.189,-38.208
0.408,-1.140,-0.139,-20.081,27.588,10.620
0.407,-0.845,-0.062,-26.794,15.808,42.908
0.453,-0.604,-0.024,-26.367,13.123,60.303
0.499,-0.407,-0.011,-20.996,15.808,65.125
0.535,-0.268,-0.029,-14.893,20.508,60.913
0.570,-0.182,-0.059,-8.972,26.001,48.523
0.606,-0.151,-0.096,-3.174,29.175,32.959
0.661,-0.168,-0.123,1.648,29.602,20.752
0.676,-0.193,-0.149,1.892,28.503,12.878
0.709,-0.215,-0.187,-2.136,26.733,7.812
0.725,-0.229,-0.198,-4.456,22.522,7.812
0.735,-0.234,-0.186,-3.723,16.785,12.878
0.751,-0.221,-0.182,-2.136,13.123,19.836
0.770,-0.200,-0.185,0.549,12.695,24.963
0.771,-0.152,-0.178,5.127,13.184,29.785
0.766,-0.074,-0.171,8.301,11.780,36.194
0.765,-0.016,-0.166,9.705,9.644,41.321
0.775,0.023,-0.159,10.376,8.972,42.480
0.794,0.038,-0.159,9.766,9.155,40.833
0.798,0.082,-0.173,7.751,9.033,38.940
0.818,0.107,-0.184,6.287,10.315,40.039
0.840,0.108,-0.198,1.648,10.986,39.429
0.862,0.089,-0.207,-6.226,9.827,34.973
0.822,0.373,-0.193,30.884,-6.348,65.063
0.817,0.398,-0.146,18.799,-10.071,63.904
0.813,0.427,-0.107,12.634,-10.864,60.791
0.805,0.447,-0.073,14.709,-10.254,58.472
0.803,0.455,-0.046,22.705,-8.240,56.885
0.800,0.458,-0.033,32.532,-4.333,55.786
0.808,0.457,-0.048,40.039,1.465,55.298
0.798,0.455,-0.073,43.701,7.263,54.871
0.781,0.457,-0.108,45.044,9.949,54.688
0.792,0.450,-0.129,45.105,10.498,56.091
0.768,0.457,-0.131,41.626,7.935,58.838
0.749,0.482,-0.129,35.034,4.944,61.157
0.735,0.509,-0.122,28.931,1.831,62.744
0.716,0.533,-0.111,24.841,0.122,63.110
0.696,0.550,-0.101,23.193,-0.732,61.646
0.677,0.563,-0.095,24.414,-0.366,59.021
0.664,0.564,-0.096,26.001,0.793,55.054
0.647,0.544,-0.098,27.588,1.648,50.598
0.627,0.503,-0.103,28.198,1.160,46.692
0.608,0.458,-0.108,27.161,0.305,43.762
0.576,0.412,-0.121,23.987,0.122,42.236
0.551,0.359,-0.143,21.362,-0.061,42.603
0.487,0.291,-0.155,19.531,-1.465,43.640
0.466,0.189,-0.181,17.700,-3.113,45.349
0.397,0.056,-0.209,13.977,-6.470,48.340
0.339,-0.088,-0.230,7.324,-13.062,54.077
0.285,-0.248,-0.257,0.305,-25.513,64.575
0.253,-0.449,-0.287,-0.916,-40.894,79.651
0.341,-0.735,-0.274,5.737,-65.430,101.135
0.350,-1.066,-0.151,20.569,-97.534,133.240
0.280,-1.376,0.026,34.973,-120.056,180.481
0.088,-1.511,0.121,41.382,-112.793,249.817
-0.247,-1.496,0.114,48.035,-82.092,335.449
-0.696,-1.237,0.084,72.510,-53.955,423.645
-1.149,-0.799,0.084,108.398,-43.518,512.146
-1.531,-0.359,0.129,131.531,-44.434,587.219
-1.836,0.154,0.235,142.395,-60.669,633.911
-2.031,0.730,0.400,148.804,-97.839,666.931
-2.058,1.263,0.546,142.700,-128.540,686.218
-1.915,1.675,0.699,135.559,-135.864,668.335
-1.763,1.923,0.846,135.437,-128.174,615.234
-1.587,1.977,0.929,136.292,-107.300,541.077
-1.439,1.988,0.919,131.897,-82.153,461.609
-1.389,2.006,0.890,125.549,-67.932,397.888
-1.258,2.017,0.853,116.577,-62.866,357.422
-1.185,2.063,0.807,100.769,-56.519,324.219
-1.153,2.056,0.717,82.397,-42.725,281.982
-1.134,1.930,0.613,69.092,-29.663,227.539
-1.142,1.681,0.541,62.378,-24.170,172.852
-1.141,1.404,0.521,59.326,-25.635,133.850
-1.143,1.201,0.530,55.603,-28.564,115.967
-1.135,1.108,0.559,52.368,-29.602,113.525
-1.128,1.112,0.604,53.223,-28.015,116.272
-1.124,1.178,0.636,58.411,-22.217,116.943
-1.121,1.255,0.643,66.589,-12.756,110.779
-1.139,1.317,0.642,74.036,-2.441,97.839
-1.162,1.364,0.618,77.026,7.263,81.726
-1.169,1.391,0.572,75.745,14.038,65.796
-1.179,1.386,0.544,71.594,14.771,49.683
-1.179,1.370,0.525,64.819,13.245,34.058
-1.187,1.349,0.510,58.044,12.024,18.921
-1.190,1.302,0.521,55.786,8.179,3.235
-1.219,1.261,0.548,55.725,4.272,-9.766
-1.239,1.251,0.584,55.542,2.991,-18.372
-1.255,1.275,0.619,55.603,2.136,-22.949
-1.256,1.335,0.651,56.030,1.648,-27.039
-1.269,1.401,0.674,57.678,2.991,-33.936
-1.288,1.452,0.682,59.509,7.507,-44.617
-1.334,1.489,0.664,58.716,14.099,-58.044
-1.436,1.530,0.633,55.786,19.531,-73.914
-1.533,1.632,0.597,53.772,20.508,-88.745
-1.687,1.799,0.579,59.265,14.832,-101.440
-1.811,2.005,0.559,74.707,4.761,-113.220
-1.952,2.270,0.577,96.497,-6.714,-122.986
-2.096,2.561,0.666,119.141,-25.452,-130.554
-2.257,2.861,0.830,132.874,-44.800,-144.287
-2.452,3.146,1.040,131.897,-52.307,-172.546
-2.583,3.304,1.263,115.234,-48.462,-221.497
-2.752,3.263,1.532,82.153,-38.513,-293.701
-2.958,3.031,1.818,25.024,-19.409,-389.771
-2.992,2.562,1.957,-62.500,12.756,-499.390
-3.064,2.001,1.960,-170.349,52.002,-605.225
-3.066,1.444,1.819,-270.813,86.487,-688.965
-3.030,0.946,1.617,-331.726,104.187,-750.427
-2.970,0.497,1.442,-333.008,107.300,-792.419
-2.887,0.066,1.293,-281.372,106.140,-814.331
-2.670,-0.382,1.124,-209.045,109.009,-813.843
-2.388,-0.835,0.989,-148.499,107.483,-791.443
-2.054,-1.180,0.894,-117.371,99.243,-747.559
-1.711,-1.409,0.824,-114.929,87.524,-687.439
-1.380,-1.504,0.762,-127.991,74.524,-621.582
-1.074,-1.492,0.715,-139.526,62.561,-560.974
-0.832,-1.462,0.704,-137.390,53.162,-513.489
-0.599,-1.520,0.726,-117.493,48.462,-477.844
-0.382,-1.652,0.758,-86.426,53.162,-445.190
-0.175,-1.785,0.728,-60.364,66.406,-408.691
-0.025,-1.847,0.653,-44.495,86.243,-365.601
0.123,-1.832,0.485,-35.217,104.065,-316.772
0.258,-1.795,0.328,-17.273,111.694,-266.907
0.317,-1.699,0.204,3.845,112.427,-216.858
0.407,-1.551,0.087,18.311,112.061,-165.771
0.445,-1.352,-0.016,21.118,107.544,-122.009
0.481,-1.154,-0.117,16.968,103.149,-85.327
0.503,-0.995,-0.192,10.376,97.229,-57.800
0.518,-0.869,-0.248,5.066,88.135,-39.551
0.518,-0.750,-0.283,3.052,78.003,-26.672
0.527,-0.626,-0.322,6.409,67.322,-13.306
0.551,-0.494,-0.330,12.268,54.749,0.000
0.581,-0.377,-0.312,18.311,41.565,10.376
0.618,-0.301,-0.277,20.813,31.372,13.000
0.648,-0.256,-0.243,18.677,25.085,8.972
0.665,-0.223,-0.223,13.550,20.996,3.967
0.679,-0.210,-0.217,10.620,19.409,1.404
0.688,-0.215,-0.208,12.634,18.738,0.366
0.673,-0.192,-0.208,18.005,19.226,1.343
0.677,-0.163,-0.233,23.499,23.010,6.042
0.698,-0.145,-0.274,24.963,26.489,11.719
0.722,-0.150,-0.300,21.606,24.902,15.320
0.752,-0.163,-0.313,14.404,20.325,18.860
0.525,0.882,0.041,116.699,-25.146,150.269
0.513,0.897,0.044,111.511,-21.423,135.193
0.479,0.892,0.037,102.417,-16.479,119.263
0.450,0.851,0.006,90.759,-12.817,101.257
0.432,0.761,-0.034,78.125,-11.047,82.947
0.434,0.656,-0.077,65.125,-14.160,67.932
0.401,0.554,-0.095,52.856,-21.240,58.350
0.382,0.441,-0.091,42.664,-29.907,54.260
0.358,0.335,-0.077,34.973,-39.917,58.716
0.387,0.245,-0.060,28.687,-50.232,69.580
0.313,0.167,0.004,25.818,-61.401,86.304
0.188,0.140,0.052,30.701,-68.787,106.323
0.285,0.089,0.084,47.058,-75.867,128.723
0.187,0.044,0.157,71.960,-90.149,156.433
0.091,-0.018,0.238,99.060,-99.976,177.490
-0.017,-0.095,0.295,118.530,-102.417,200.623
-0.099,-0.188,0.331,127.869,-102.051,231.995
-0.261,-0.235,0.382,129.822,-99.792,270.691
-0.515,-0.196,0.460,126.892,-97.168,317.322
-0.769,0.034,0.531,121.277,-100.403,366.882
-0.926,0.335,0.644,118.591,-116.394,421.265
-1.129,0.671,0.797,114.014,-133.667,471.375
-1.285,1.008,0.894,103.699,-131.531,504.333
-1.263,1.250,0.925,99.548,-115.601,512.451
-1.255,1.389,0.927,106.201,-98.083,495.300
-1.214,1.481,0.909,118.103,-80.933,458.557
-1.247,1.578,0.911,132.202,-75.623,417.175
-1.251,1.654,0.908,143.311,-80.383,386.963
-1.225,1.694,0.916,145.081,-84.473,362.671
-1.189,1.721,0.916,135.193,-84.473,333.374
-1.147,1.710,0.897,115.540,-80.200,297.241
-1.071,1.637,0.828,90.637,-72.693,254.944
-1.083,1.538,0.767,70.313,-64.392,210.510
-1.111,1.359,0.734,57.007,-56.641,171.692
-1.167,1.166,0.720,45.715,-50.903,143.921
-1.228,1.064,0.723,35.889,-47.913,130.432
-1.282,1.057,0.752,32.837,-50.537,132.019
-1.360,1.160,0.832,38.208,-55.908,142.822
-1.385,1.371,0.927,47.241,-59.509,156.433
-1.410,1.615,0.996,53.406,-58.044,164.551
-1.450,1.834,1.027,54.871,-49.072,158.081
-1.488,1.967,1.018,54.077,-34.302,134.888
-1.513,2.032,0.990,53.162,-19.775,100.647
-1.527,2.040,0.946,52.612,-8.789,57.861
-1.558,2.027,0.924,53.711,-2.563,9.338
-1.621,1.994,0.931,52.551,1.099,-36.621
-1.694,2.000,0.956,44.067,4.761,-73.914
-1.781,2.106,0.989,25.391,9.399,-99.426
-1.889,2.260,1.039,0.854,13.123,-117.432
-2.001,2.416,1.070,-23.682,15.198,-138.184
-2.053,2.519,1.093,-45.715,15.320,-170.898
-2.089,2.566,1.168,-64.758,10.132,-216.858
-2.148,2.579,1.296,-86.121,2.136,-270.813
-2.236,2.569,1.433,-114.502,-3.601,-326.416
-2.327,2.478,1.552,-149.719,-2.563,-380.737
-2.406,2.321,1.657,-190.186,6.104,-439.880
-2.483,2.136,1.741,-231.018,16.052,-498.901
-2.509,1.916,1.779,-264.099,23.743,-548.035
-2.518,1.671,1.835,-285.645,29.785,-590.149
-2.506,1.462,1.909,-299.805,32.043,-626.465
-2.513,1.266,1.933,-312.195,34.729,-654.785
-2.490,1.051,1.848,-321.411,49.316,-680.054
-2.459,0.802,1.667,-318.970,71.594,-708.069
-2.428,0.520,1.440,-297.913,93.079,-736.023
-2.353,0.194,1.207,-260.803,108.215,-757.935
-2.163,-0.172,1.027,-219.055,117.432,-768.555
-1.962,-0.535,0.911,-190.613,121.826,-766.479
-1.718,-0.875,0.754,-185.364,127.075,-747.070
-1.433,-1.135,0.576,-196.960,134.155,-709.534
-1.108,-1.349,0.439,-209.900,133.667,-656.555
-0.838,-1.490,0.369,-210.999,123.047,-592.590
-0.639,-1.592,0.309,-189.453,111.328,-523.376
-0.455,-1.678,0.203,-149.048,109.924,-460.693
-0.261,-1.781,0.060,-105.835,116.638,-408.936
-0.100,-1.875,-0.076,-72.754,122.559,-359.558
0.014,-1.901,-0.194,-56.152,122.681,-304.077
0.113,-1.854,-0.291,-52.856,113.342,-246.582
0.179,-1.746,-0.340,-51.880,94.360,-190.674
0.227,-1.585,-0.332,-48.218,70.984,-139.465
0.272,-1.385,-0.280,-43.884,48.706,-95.276
0.286,-1.147,-0.219,-41.748,33.020,-59.509
0.316,-0.940,-0.170,-39.978,26.489,-33.875
0.331,-0.770,-0.141,-37.354,25.208,-21.057
0.348,-0.651,-0.140,-31.067,25.879,-18.555
0.357,-0.589,-0.154,-20.752,27.893,-21.790
0.378,-0.590,-0.188,-9.644,31.982,-27.283
0.392,-0.640,-0.234,-2.197,34.912,-33.203
0.397,-0.714,-0.275,2.625,35.400,-35.156
0.388,-0.775,-0.309,5.737,33.203,-31.616
0.388,-0.809,-0.335,9.094,28.931,-21.484
0.400,-0.819,-0.348,12.085,24.048,-7.629
0.409,-0.813,-0.352,13.489,19.043,6.165
0.411,-0.790,-0.350,13.306,14.526,19.165
0.411,-0.757,-0.350,16.296,11.719,31.006
0.403,-0.717,-0.344,22.949,8.484,41.809
0.402,-0.681,-0.330,31.616,5.249,52.002
0.406,-0.641,-0.324,36.865,4.700,62.866
0.415,-0.590,-0.341,35.767,7.629,73.120
0.429,-0.538,-0.356,33.325,8.728,80.200
0.441,-0.499,-0.361,34.790,7.385,85.938
0.458,-0.474,-0.371,37.842,5.737,91.370
0.473,-0.449,-0.393,40.649,4.456,97.290
0.493,-0.424,-0.415,42.847,3.357,104.126
0.502,-0.397,-0.426,44.312,1.282,111.389
0.514,-0.355,-0.430,44.678,-2.441,118.103
0.523,-0.307,-0.422,46.997,-6.348,124.207
0.525,-0.263,-0.408,52.185,-10.559,129.028
0.543,-0.223,-0.395,59.326,-14.038,132.141
0.555,-0.167,-0.377,66.467,-16.541,134.644
0.571,-0.122,-0.352,73.608,-18.799,137.756
0.571,-0.080,-0.319,80.017,-20.996,139.587
0.580,-0.041,-0.294,85.266,-22.034,139.526
0.593,-0.005,-0.283,89.600,-22.522,138.489
0.599,0.018,-0.289,94.727,-21.606,136.414
0.636,0.022,-0.309,101.135,-18.738,133.606
0.675,0.013,-0.317,107.605,-17.517,133.362
0.683,0.027,-0.304,111.450,-19.409,138.672
0.678,0.075,-0.274,112.671,-22.156,148.926
0.655,0.158,-0.237,112.915,-24.597,161.072
0.758,0.583,-0.210,40.894,-26.184,43.335
0.760,0.588,-0.210,40.283,-24.536,38.757
0.774,0.570,-0.196,40.039,-23.865,33.875
0.695,0.565,-0.203,38.147,-22.217,29.053
0.785,0.525,-0.250,35.461,-20.508,22.583
0.767,0.481,-0.247,34.485,-23.437,18.921
0.773,0.452,-0.238,29.358,-27.039,18.250
0.767,0.450,-0.222,21.545,-31.189,21.362
0.776,0.459,-0.198,14.282,-34.912,25.269
0.775,0.485,-0.166,10.010,-37.231,28.748
0.761,0.516,-0.141,9.583,-38.086,30.334
0.740,0.534,-0.125,15.320,-37.231,29.114
0.748,0.515,-0.120,24.536,-35.889,24.963
0.738,0.474,-0.116,33.325,-33.936,20.386
0.741,0.421,-0.128,38.635,-31.677,17.822
0.740,0.373,-0.145,40.344,-30.396,18.860
0.753,0.339,-0.170,39.063,-30.640,22.522
0.753,0.328,-0.170,38.269,-33.081,30.090
0.734,0.344,-0.146,37.292,-38.086,39.612
0.714,0.378,-0.118,36.377,-42.297,49.011
0.684,0.418,-0.085,36.255,-44.617,56.763
0.635,0.440,-0.058,36.865,-45.471,60.852
0.597,0.414,-0.047,37.598,-44.617,60.974
0.535,0.359,-0.050,37.903,-42.297,59.448
0.469,0.273,-0.080,37.354,-40.100,58.105
0.445,0.159,-0.145,38.391,-38.879,58.350
0.436,0.036,-0.206,43.640,-43.396,62.317
0.385,-0.103,-0.218,55.481,-54.199,70.862
0.336,-0.277,-0.219,71.594,-68.848,84.900
0.263,-0.472,-0.226,89.050,-82.336,106.873
0.184,-0.676,-0.255,103.394,-95.886,137.573
0.086,-0.905,-0.277,115.051,-112.366,178.894
-0.104,-1.087,-0.265,121.094,-130.676,230.164
-0.372,-1.176,-0.234,125.549,-150.940,292.542
-0.702,-1.195,-0.105,139.160,-171.936,364.075
-1.078,-1.053,0.183,157.166,-191.772,437.378
-1.481,-0.699,0.557,173.828,-218.201,509.094
-1.823,-0.160,0.944,187.195,-243.591,576.355
-2.002,0.517,1.240,197.449,-259.644,627.197
-2.012,1.141,1.462,201.721,-271.118,663.147
-1.895,1.694,1.608,194.885,-259.033,678.528
-1.724,2.098,1.654,189.087,-222.107,661.804
-1.486,2.347,1.595,186.401,-171.387,609.253
-1.302,2.479,1.492,183.533,-127.136,525.391
-1.141,2.477,1.397,174.927,-100.220,427.429
-1.042,2.397,1.337,151.550,-86.853,330.933
-0.949,2.282,1.277,112.122,-78.369,246.765
-0.921,2.105,1.215,66.650,-68.359,179.016
-0.881,1.855,1.147,34.668,-55.786,122.131
-0.847,1.551,1.081,26.550,-43.701,75.989
-0.839,1.273,1.031,36.377,-30.884,42.664
-0.801,1.058,0.991,51.880,-18.494,27.466
-0.817,0.911,0.966,62.195,-12.390,30.273
-0.816,0.854,0.940,60.974,-8.911,42.725
-0.826,0.899,0.910,50.232,-5.493,54.993
-0.842,0.981,0.886,40.771,-5.432,60.791
-0.829,1.035,0.904,40.771,-9.277,60.120
-0.846,1.068,0.935,43.152,-12.024,56.213
-0.839,1.103,0.921,40.955,-7.629,49.011
-0.859,1.127,0.889,37.292,-2.014,38.208
-0.866,1.135,0.855,36.011,2.197,28.931
-0.867,1.128,0.822,34.912,4.700,20.935
-0.869,1.088,0.794,33.081,6.165,10.864
-0.870,1.015,0.772,28.687,6.714,0.061
-0.884,0.946,0.752,21.301,4.944,-7.385
-0.902,0.902,0.742,15.320,2.258,-11.841
-0.939,0.894,0.747,14.709,-1.099,-13.428
-0.962,0.927,0.770,17.273,-5.066,-11.658
-0.996,0.997,0.803,18.799,-8.423,-8.057
-1.034,1.078,0.838,15.991,-10.620,-7.324
-1.084,1.165,0.889,8.667,-12.756,-10.620
-1.153,1.279,0.949,-0.549,-15.320,-16.724
-1.243,1.440,0.999,-7.202,-15.076,-23.376
-1.323,1.617,1.045,-8.911,-13.184,-31.921
-1.414,1.817,1.099,-7.263,-10.864,-45.227
-1.498,2.029,1.154,-6.531,-9.583,-62.866
-1.580,2.251,1.219,-8.606,-8.850,-84.412
-1.664,2.437,1.274,-15.991,-8.240,-112.183
-1.727,2.515,1.332,-27.283,-6.165,-148.254
-1.786,2.490,1.427,-43.213,-4.883,-193.726
-1.831,2.430,1.528,-65.796,-2.258,-242.371
-1.908,2.412,1.657,-90.820,2.258,-286.438
-1.958,2.379,1.782,-110.474,10.315,-326.355
-1.994,2.293,1.876,-122.070,26.550,-371.216
-2.017,2.117,1.955,-126.099,50.293,-423.340
-2.041,1.812,1.982,-131.897,80.383,-479.553
-2.062,1.432,1.935,-147.888,116.821,-534.180
-2.069,1.114,1.840,-173.096,154.480,-581.238
-2.112,0.887,1.711,-197.327,183.350,-611.145
-2.117,0.660,1.532,-211.121,203.613,-625.916
-2.097,0.449,1.339,-212.402,222.107,-636.230
-2.055,0.242,1.146,-204.651,234.985,-648.499
-2.012,0.028,0.981,-191.956,240.479,-658.264
-1.952,-0.214,0.804,-178.040,240.662,-663.879
-1.807,-0.473,0.612,-163.025,238.953,-664.001
-1.645,-0.703,0.455,-149.048,232.361,-657.227
-1.470,-0.931,0.336,-136.047,219.849,-636.414
-1.242,-1.164,0.208,-121.826,204.712,-604.004
-1.000,-1.372,0.108,-102.051,193.359,-561.951
-0.753,-1.564,0.020,-79.773,185.791,-511.414
-0.493,-1.739,-0.090,-65.674,180.786,-454.590
-0.290,-1.867,-0.208,-64.392,176.208,-394.836
-0.106,-1.933,-0.335,-69.458,170.532,-335.999
0.043,-1.958,-0.437,-70.618,157.715,-277.405
0.150,-1.937,-0.505,-66.467,138.916,-219.055
0.226,-1.846,-0.534,-63.904,118.591,-158.936
0.280,-1.672,-0.537,-66.101,97.839,-98.816
0.335,-1.444,-0.509,-70.313,77.026,-44.617
0.358,-1.191,-0.443,-72.449,58.716,-2.136
0.368,-0.939,-0.362,-70.923,45.410,27.893
0.378,-0.704,-0.302,-66.162,37.720,46.082
0.380,-0.501,-0.275,-59.021,34.729,54.504
0.416,-0.365,-0.279,-49.561,34.180,53.467
0.443,-0.296,-0.294,-39.001,33.752,43.457
0.474,-0.282,-0.312,-28.320,32.959,28.076
0.497,-0.301,-0.326,-18.982,30.273,13.794
0.522,-0.334,-0.347,-12.024,27.100,4.700
0.547,-0.378,-0.369,-6.165,23.987,0.122
0.558,-0.420,-0.383,-0.244,19.165,-0.610